timestamp,TimeUS,I,GyrX,GyrY,GyrZ,AccX,AccY,AccZ,EG,EA,T,GH,AH,GHz,AHz
1778515987.14002419,105322854,0,0.0014667361974716187,0.001466857036575675,0.0014603324234485626,-0.0008013601182028651,-0.0008991873473860323,-9.817270278930664,0,0,30.831249237060547,1,1,1000,1000
1778515987.14002419,105322854,1,0.0013482221402227879,0.0014539798721671104,0.0017638916615396738,-0.0010450207628309727,-0.00043738866224884987,-9.819269180297852,0,0,30.831249237060547,1,1,760,800
1778515987.18000817,105362838,0,0.0014319932088255882,0.0014803026570007205,0.0015562475891783834,-0.0010501426877453923,-0.0007705307798460126,-9.81717586517334,0,0,30.83313751220703,1,1,1000,1000
1778515987.18000817,105362838,1,0.001966440351679921,0.0015707493294030428,0.0014695444842800498,0.0018143500201404095,-0.0036653405986726284,-9.819522857666016,0,0,30.83313751220703,1,1,760,800
1778515987.21999216,105402822,0,0.0014877533540129662,0.0015581785701215267,0.0014922471018508077,-1.282468201679876e-05,-0.0007609014865010977,-9.816383361816406,0,0,30.835025787353516,1,1,1000,1000
1778515987.21999216,105402822,1,0.0016910717822611332,0.0015546508366242051,0.0017173518426716328,6.090754322940484e-05,0.002552418503910303,-9.815526962280273,0,0,30.834980010986328,1,1,760,800
1778515987.25997615,105442806,0,0.0016357488930225372,0.001595923793502152,0.0014643481699749827,-0.0004916856996715069,-0.0004997825599275529,-9.817642211914062,0,0,30.836915969848633,1,1,1000,1000
1778515987.25997615,105442806,1,0.0011346596293151379,0.001738672610372305,0.001626045792363584,0.0012304350966587663,-0.00250042462721467,-9.820337295532227,0,0,30.836868286132812,1,1,760,800
1778515987.29996014,105482790,0,0.0014257412403821945,0.001466042478568852,0.0014942961279302835,-0.0009868437191471457,-0.001324932207353413,-9.8165283203125,0,0,30.838804244995117,1,1,1000,1000
1778515987.29996014,105482790,1,0.0016635223291814327,0.0015838881954550743,0.0013636312214657664,-0.002427703235298395,-4.14797686971724e-05,-9.819385528564453,0,0,30.838756561279297,1,1,760,800
1778515987.33994412,105522774,0,0.0015231964644044638,0.00143242662306875,0.001479506492614746,-0.0009238415514118969,-0.00135560252238065,-9.81701946258545,0,0,30.84069061279297,1,1,1000,1000
1778515987.33994412,105522774,1,0.0013590503949671984,0.0015663907397538424,0.0013873715652152896,-0.002052553929388523,-0.0004871601995546371,-9.81665325164795,0,0,30.84064483642578,1,1,760,800
1778515987.37992811,105562758,0,0.0014919016975909472,0.001474336488172412,0.001585514866746962,-0.0013970093568786979,-0.0017784645315259695,-9.817559242248535,0,0,30.842578887939453,1,1,1000,1000
1778515987.37992811,105562758,1,0.0013919728808104992,0.0015598763711750507,0.0016024375800043344,-0.0013831988908350468,-0.0007480346830561757,-9.819204330444336,0,0,30.842533111572266,1,1,760,800
1778515987.41991210,105602742,0,0.0014943787828087807,0.0014529322506859899,0.0015266743721440434,-0.0018240486970171332,-0.000696670264005661,-9.817256927490234,0,0,30.844467163085938,1,1,1000,1000
1778515987.41991210,105602742,1,0.001722696702927351,0.00152020703535527,0.001413180259987712,-0.0004108748980797827,-0.0010253851069137454,-9.816410064697266,0,0,30.844419479370117,1,1,760,800
1778515987.45989609,105642726,0,0.0014759706100448966,0.00147076731082052,0.001436711521819234,-0.0018528442597016692,-0.0012684999965131283,-9.816584587097168,0,0,30.84635353088379,1,1,1000,1000
1778515987.45989609,105642726,1,0.0014222104800865054,0.0015852057840675116,0.001718460232950747,-0.0032795052975416183,-0.004357757046818733,-9.819055557250977,0,0,30.8463077545166,1,1,760,800
1778515987.49988008,105682710,0,0.0014966956805437803,0.001485345303080976,0.0015703692333772779,-0.000998428906314075,-0.0018224453087896109,-9.816960334777832,0,0,30.84823989868164,1,1,1000,1000
1778515987.49988008,105682710,1,0.0015619772020727396,0.0013195613864809275,0.0016138057690113783,-0.00011339861521264538,-0.0006441618897952139,-9.818891525268555,0,0,30.848194122314453,1,1,760,800
1778515987.53986406,105722694,0,0.0014574903761968017,0.0015188077231869102,0.001442840090021491,-0.0012687258422374725,-0.0012969551607966423,-9.818570137023926,0,0,30.850128173828125,1,1,1000,1000
1778515987.53986406,105722694,1,0.001426745904609561,0.001462451065890491,0.00122944510076195,0.0010106888366863132,-0.0006493193795904517,-9.817583084106445,0,0,30.850080490112305,1,1,760,800
1778515987.57984805,105762678,0,0.001475792028941214,0.0014858701033517718,0.0015547496732324362,-0.0010052535217255354,-0.00043376325629651546,-9.817103385925293,0,0,30.852014541625977,1,1,1000,1000
1778515987.57984805,105762678,1,0.0013356581330299377,0.0012715435586869717,0.001359417219646275,-0.0007905153324827552,-0.0017018899088725448,-9.818120002746582,0,0,30.851966857910156,1,1,760,800
1778515987.61983204,105802662,0,0.0014833611203357577,0.0015937748830765486,0.0015550043899565935,-0.001589049119502306,-0.0017402383964508772,-9.817100524902344,0,0,30.853900909423828,1,1,1000,1000
1778515987.61983204,105802662,1,0.0014114417135715485,0.0015722992829978466,0.0013647251762449741,0.0010560015216469765,-0.002319938037544489,-9.815580368041992,0,0,30.853853225708008,1,1,760,800
1778515987.65981603,105842646,0,0.001506708562374115,0.0015793037600815296,0.0014958996325731277,-0.000955918978434056,-0.0008181199664250016,-9.817523956298828,0,0,30.85578727722168,1,1,1000,1000
1778515987.65981603,105842646,1,0.001431903219781816,0.001779666868969798,0.0014901311369612813,-0.0017732111737132072,0.0012520019663497806,-9.81886100769043,0,0,30.85573959350586,1,1,760,800
1778515987.69980025,105882630,0,0.0014685755595564842,0.0015586453955620527,0.001481708139181137,-0.0009581510676071048,-0.0002699622418731451,-9.81656265258789,0,0,30.85767364501953,1,1,1000,1000
1778515987.69980025,105882630,1,0.001572178560309112,0.001589854247868061,0.0015565329231321812,-0.0002921113627962768,0.00011445276322774589,-9.815866470336914,0,0,30.857624053955078,1,1,760,800
1778515987.73978424,105922614,0,0.0015543453628197312,0.0014541472773998976,0.0014879321679472923,-0.0008337732870131731,-0.000964141683652997,-9.816640853881836,0,0,30.85955810546875,1,1,1000,1000
1778515987.73978424,105922614,1,0.0014201694866642356,0.0016076992033049464,0.00157271814532578,-0.0010466126259416342,-0.0026692375540733337,-9.81573486328125,0,0,30.85951042175293,1,1,760,800
1778515987.77976823,105962598,0,0.0014861448435112834,0.0015691525768488646,0.0014467198634520173,-0.0014313471037894487,-0.0007852467824704945,-9.817218780517578,0,0,30.86144256591797,1,1,1000,1000
1778515987.77976823,105962598,1,0.0015323814004659653,0.0015171230770647526,0.00174034689553082,0.0002903783170040697,-0.0008845148840919137,-9.81710433959961,0,0,30.86139678955078,1,1,760,800
1778515987.81975222,106002582,0,0.001580697251483798,0.001479877158999443,0.001594413653947413,-0.00014252822438720614,-0.0011136753018945456,-9.816927909851074,0,0,30.863327026367188,1,1,1000,1000
1778515987.81975222,106002582,1,0.0017614199314266443,0.0014673853293061256,0.0015922863967716694,-0.0012372267665341496,-0.0015099374577403069,-9.816604614257812,0,0,30.86328125,1,1,760,800
1778515987.85973620,106042566,0,0.001537324977107346,0.0014887831639498472,0.0015167189994826913,-0.001562740420922637,-0.0012575570726767182,-9.816722869873047,0,0,30.865211486816406,1,1,1000,1000
1778515987.85973620,106042566,1,0.0016541926888749003,0.0012537557631731033,0.0014476282522082329,-0.003408335614949465,-0.0027971488889306784,-9.819662094116211,0,0,30.865211486816406,1,1,760,800
1778515987.89972019,106082550,0,0.0014996507670730352,0.0015254814643412828,0.0015105224447324872,-0.0009415666572749615,-0.0012614430161193013,-9.817584037780762,0,0,30.867097854614258,1,1,1000,1000
1778515987.89972019,106082550,1,0.0015465936157852411,0.0015657463809475303,0.0014032690087333322,-0.002213283907622099,-0.0020570321939885616,-9.814367294311523,0,0,30.867097854614258,1,1,760,800
1778515987.93970418,106122534,0,0.0015500194858759642,0.0015049106441438198,0.001463249558582902,-0.0009975576540455222,-0.0009283190011046827,-9.817194938659668,0,0,30.868982315063477,1,1,1000,1000
1778515987.93970418,106122534,1,0.001388763776049018,0.0017572748474776745,0.0017681512981653214,1.019548926706193e-05,0.0012965034693479538,-9.818726539611816,0,0,30.868982315063477,1,1,760,800
1778515987.97968817,106162518,0,0.0014555355301126838,0.0014843756798654795,0.0015000078128650784,-0.0008185189799405634,-0.0004426907398737967,-9.818599700927734,0,0,30.870864868164062,1,1,1000,1000
1778515987.97968817,106162518,1,0.0014494656352326274,0.0014106063172221184,0.0014795073075219989,0.002114477101713419,-0.0030840022955089808,-9.818249702453613,0,0,30.870864868164062,1,1,760,800
1778515988.01967216,106202502,0,0.001598994480445981,0.0014328609686344862,0.001560764852911234,-0.0011987644247710705,-0.0004414553986862302,-9.817607879638672,0,0,30.87274932861328,1,1,1000,1000
1778515988.01967216,106202502,1,0.001454545883461833,0.001479288563132286,0.0015049471985548735,-0.002344016917049885,-0.0007981775561347604,-9.817713737487793,0,0,30.87274932861328,1,1,760,800
1778515988.05965614,106242486,0,0.0015721585368737578,0.0015775375068187714,0.001540011027827859,-7.713371451245621e-05,-0.0006344248540699482,-9.81730842590332,0,0,30.8746337890625,1,1,1000,1000
1778515988.05965614,106242486,1,0.001496187411248684,0.0013529220595955849,0.0016249477630481124,-0.001278542447835207,-0.001898239366710186,-9.816240310668945,0,0,30.8746337890625,1,1,760,800
1778515988.09964013,106282470,0,0.0015347129665315151,0.0015426756581291556,0.0015462125884369016,-0.001281508943066001,-0.0010499227792024612,-9.818613052368164,0,0,30.876516342163086,1,1,1000,1000
1778515988.09964013,106282470,1,0.0014938653912395239,0.0015906539047136903,0.0015632414724677801,-0.0009032328380271792,0.0009782288689166307,-9.820615768432617,0,0,30.876516342163086,1,1,760,800
1778515988.13962412,106322454,0,0.0015473092207685113,0.0014815950999036431,0.0015642923535779119,-0.0006347779417410493,-0.0021735187619924545,-9.817582130432129,0,0,30.878398895263672,1,1,1000,1000
1778515988.13962412,106322454,1,0.001685220981016755,0.0016797012649476528,0.0014129031915217638,-0.0012121719773858786,0.0008312335703521967,-9.815520286560059,0,0,30.878398895263672,1,1,760,800
1778515988.17960811,106362438,0,0.0014773147413507104,0.0015287062851712108,0.001477397046983242,-0.00026585778687149286,-0.0013108900748193264,-9.81734848022461,0,0,30.880281448364258,1,1,1000,1000
1778515988.17960811,106362438,1,0.0012781720142811537,0.001630774000659585,0.0013181351823732257,-0.0019498958718031645,-0.0008895579376257956,-9.819647789001465,0,0,30.880281448364258,1,1,760,800
1778515988.21959209,106402422,0,0.001509038032963872,0.0015030482318252325,0.0015287826536223292,-0.0007368761580437422,-0.0009284927509725094,-9.81751823425293,0,0,30.882164001464844,1,1,1000,1000
1778515988.21959209,106402422,1,0.0014445108827203512,0.0016678273677825928,0.0014549179468303919,-0.0013977554626762867,-0.0030893313232809305,-9.817408561706543,0,0,30.882164001464844,1,1,760,800
1778515988.25957608,106442406,0,0.0014718319289386272,0.001493226969614625,0.0015780029352754354,-0.0016611795872449875,-0.0010130133014172316,-9.81716537475586,0,0,30.88404655456543,1,1,1000,1000
1778515988.25957608,106442406,1,0.001606940757483244,0.001445837551727891,0.0012171214912086725,-0.001784671563655138,-0.00012034681276418269,-9.816049575805664,0,0,30.88404655456543,1,1,760,800
1778515988.29956007,106482390,0,0.0013689433690160513,0.0015717491041868925,0.0015378004172816873,-0.002124824794009328,-0.0005641102907247841,-9.817134857177734,0,0,30.885929107666016,1,1,1000,1000
1778515988.29956007,106482390,1,0.001351852435618639,0.0013944953680038452,0.001555158756673336,0.00025087641552090645,-0.0007392141269519925,-9.818281173706055,0,0,30.885929107666016,1,1,760,800
1778515988.33954406,106522374,0,0.0015324077103286982,0.0015396431554108858,0.0015253146411851048,-0.0015041872393339872,-0.0002863880945369601,-9.816580772399902,0,0,30.88780975341797,1,1,1000,1000
1778515988.33954406,106522374,1,0.0013749513309448957,0.001562539953738451,0.0013708113692700863,-0.0005298262694850564,-0.0018348225858062506,-9.817514419555664,0,0,30.88780975341797,1,1,760,800
1778515988.37952805,106562358,0,0.0014910893514752388,0.001558080199174583,0.0015631490387022495,-0.001850722823292017,-0.0008199685835279524,-9.817704200744629,0,0,30.889692306518555,1,1,1000,1000
1778515988.37952805,106562358,1,0.001608475111424923,0.001319634960964322,0.0013172775506973267,-0.005205297842621803,-0.0013024620711803436,-9.815195083618164,0,0,30.889692306518555,1,1,760,800
1778515988.41951203,106602342,0,0.001533254748210311,0.0014893256593495607,0.0014534479705616832,-0.00029289055964909494,-0.000847275834530592,-9.818344116210938,0,0,30.891572952270508,1,1,1000,1000
1778515988.41951203,106602342,1,0.0015978027367964387,0.0014232707908377051,0.001589432591572404,0.00017301765910815448,-0.0008803713135421276,-9.818709373474121,0,0,30.891572952270508,1,1,760,800
1778515988.45949626,106642326,0,0.00152702780906111,0.0015441941795870662,0.0015233911108225584,-0.00022520753554999828,-0.0008891559555195272,-9.818065643310547,0,0,30.893455505371094,1,1,1000,1000
1778515988.45949626,106642326,1,0.0018438150873407722,0.001402946305461228,0.0015424954472109675,-0.002618157770484686,0.0012276212219148874,-9.816478729248047,0,0,30.893455505371094,1,1,760,800
1778515988.49948025,106682310,0,0.0014729863032698631,0.0015268501592800021,0.0015216005267575383,-0.0007106003467924893,-0.0016727142501622438,-9.816730499267578,0,0,30.895334243774414,1,1,1000,1000
1778515988.49948025,106682310,1,0.0017393542220816016,0.0016398552106693387,0.0016093712765723467,-0.00016430325922556221,-0.0007476650644093752,-9.815220832824707,0,0,30.895334243774414,1,1,760,800
1778515988.53946424,106722294,0,0.0015159652102738619,0.0014701582258567214,0.0015203150687739253,-0.001274624839425087,-0.0011249646777287126,-9.817111015319824,0,0,30.897216796875,1,1,1000,1000
1778515988.53946424,106722294,1,0.0014544277219101787,0.0013824873603880405,0.0016682244604453444,0.0011986270546913147,-0.0011936723021790385,-9.817296981811523,0,0,30.897216796875,1,1,760,800
1778515988.57944822,106762278,0,0.0015917506534606218,0.001566015649586916,0.0015270605217665434,-0.0010236742673441768,-0.0003106424701400101,-9.817163467407227,0,0,30.89909553527832,1,1,1000,1000
1778515988.57944822,106762278,1,0.0014061440015211701,0.0015903946477919817,0.0014552529901266098,-0.00041859448538161814,-0.0013659644173458219,-9.815950393676758,0,0,30.89909553527832,1,1,760,800
1778515988.61943221,106802262,0,0.0015274147735908628,0.0015134857967495918,0.0014786807587370276,-0.0007282243459485471,-0.000590028939768672,-9.817955017089844,0,0,30.90097427368164,1,1,1000,1000
1778515988.61943221,106802262,1,0.001432259799912572,0.0013813299592584372,0.0016206067521125078,-0.002689693821594119,0.0005581544828601182,-9.818164825439453,0,0,30.90097427368164,1,1,760,800
1778515988.65941620,106842246,0,0.001535849180072546,0.0015211519785225391,0.0015398781979456544,-0.0006761120166629553,-0.0010348204523324966,-9.81764030456543,0,0,30.902854919433594,1,1,1000,1000
1778515988.65941620,106842246,1,0.001464668894186616,0.0013016490265727043,0.0017753278370946646,-0.00016580690862610936,-0.00019086874090135098,-9.819361686706543,0,0,30.902854919433594,1,1,760,800
1778515988.69940019,106882230,0,0.0014610859798267484,0.0015007206238806248,0.0015440389979630709,-0.0005846555577591062,-0.00045352819142863154,-9.816607475280762,0,0,30.904687881469727,1,1,1000,1000
1778515988.69940019,106882230,1,0.001568468869663775,0.0015221736393868923,0.0016937641194090247,-0.0018400715198367834,-0.0005110301426611841,-9.813552856445312,0,0,30.904735565185547,1,1,760,800
1778515988.73938417,106922214,0,0.001534006092697382,0.0015348638407886028,0.0015099504962563515,-0.0012289996957406402,-0.00029599256231449544,-9.817830085754395,0,0,30.906566619873047,1,1,1000,1000
1778515988.73938417,106922214,1,0.0012665019603446126,0.001445111003704369,0.0015677993651479483,2.0042993128299713e-05,0.0004694871895480901,-9.817070960998535,0,0,30.906614303588867,1,1,760,800
1778515988.77936816,106962198,0,0.001552726374939084,0.0015454923268407583,0.001513578579761088,-0.0008664739434607327,-0.00144597003236413,-9.81740951538086,0,0,30.908447265625,1,1,1000,1000
1778515988.77936816,106962198,1,0.0015621607890352607,0.0013328351778909564,0.0013211986515671015,-0.0040815784595906734,-0.0014236094430088997,-9.818775177001953,0,0,30.908493041992188,1,1,760,800
1778515988.81935215,107002182,0,0.0015323762781918049,0.001553955371491611,0.0016061171190813184,0.00022318473202176392,-0.0022178390063345432,-9.81674861907959,0,0,30.910324096679688,1,1,1000,1000
1778515988.81935215,107002182,1,0.00140382198151201,0.0015779288951307535,0.001704720314592123,-0.0011917739175260067,-0.0011619459837675095,-9.816792488098145,0,0,30.910371780395508,1,1,760,800
1778515988.85933614,107042166,0,0.0015483159804716706,0.0015301051316782832,0.0014809384010732174,-0.0002763599914032966,-0.000925262167584151,-9.816405296325684,0,0,30.91220474243164,1,1,1000,1000
1778515988.85933614,107042166,1,0.0013998734066262841,0.0014498629607260227,0.0018598348833620548,0.0005390309961512685,-0.0023321667686104774,-9.81736946105957,0,0,30.912250518798828,1,1,760,800
1778515988.89932013,107082150,0,0.0015030722133815289,0.0015631061978638172,0.0015468352939933538,-0.000678973039612174,-0.0015244345413520932,-9.817713737487793,0,0,30.914081573486328,1,1,1000,1000
1778515988.89932013,107082150,1,0.0014537988463416696,0.001437474857084453,0.0015020231949165463,-0.0006175961461849511,-0.0011203560279682279,-9.816954612731934,0,0,30.91412925720215,1,1,760,800
1778515988.93930411,107122134,0,0.001556389150209725,0.001492199138738215,0.0015516686253249645,-0.0010941067012026906,-0.0014822515659034252,-9.816947937011719,0,0,30.91596031188965,1,1,1000,1000
1778515988.93930411,107122134,1,0.0014693294651806355,0.0014812700683251023,0.0014721041079610586,-0.0015155263245105743,0.002125280210748315,-9.817745208740234,0,0,30.916006088256836,1,1,760,800
1778515988.97928810,107162118,0,0.0015422870637848973,0.0015114854322746396,0.001552460715174675,-0.0013883885694667697,-0.001566780498251319,-9.817649841308594,0,0,30.917837142944336,1,1,1000,1000
1778515988.97928810,107162118,1,0.00162699690554291,0.0015169314574450254,0.0016756789991632104,-0.0023714867420494556,-0.002838196698576212,-9.818740844726562,0,0,30.917884826660156,1,1,760,800
1778515989.01927209,107202102,0,0.00144698447547853,0.0015975467395037413,0.001528708846308291,-0.00010702652798499912,-0.0007291861111298203,-9.816995620727539,0,0,30.919715881347656,1,1,1000,1000
1778515989.01927209,107202102,1,0.0013468405231833458,0.0014944137074053288,0.0015674763126298785,-0.00316827860660851,-0.0031619358342140913,-9.818008422851562,0,0,30.919761657714844,1,1,760,800
1778515989.05925608,107242086,0,0.0014412598684430122,0.0015133459819480777,0.0014992717187851667,-0.0009370879270136356,-0.0024089105427265167,-9.818534851074219,0,0,30.921592712402344,1,1,1000,1000
1778515989.05925608,107242086,1,0.0015666421968489885,0.001334590371698141,0.0014127320609986782,-0.000905620981939137,-0.0015545869246125221,-9.817559242248535,0,0,30.92163848876953,1,1,760,800
1778515989.09924006,107282070,0,0.0015502918977290392,0.001560003962367773,0.0015490374062210321,-0.001303351134993136,-0.0021015109959989786,-9.816934585571289,0,0,30.92346954345703,1,1,1000,1000
1778515989.09924006,107282070,1,0.0011928846361115575,0.0017196981934830546,0.0014245285419747233,-0.000575002864934504,0.002167961560189724,-9.819392204284668,0,0,30.92351722717285,1,1,760,800
1778515989.13922405,107322054,0,0.0015134266577661037,0.0014613289386034012,0.0015977676957845688,-0.000870749237947166,-0.0015003513544797897,-9.818353652954102,0,0,30.925392150878906,1,1,1000,1000
1778515989.13922405,107322054,1,0.0014205537736415863,0.0016314913518726826,0.001498890109360218,-4.2612969991751015e-05,-0.002576611703261733,-9.817501068115234,0,0,30.925392150878906,1,1,760,800
1778515989.17920804,107362038,0,0.0014454819029197097,0.0014903276460245252,0.001607778831385076,-0.00033357052598148584,-0.00020648547797463834,-9.817127227783203,0,0,30.927268981933594,1,1,1000,1000
1778515989.17920804,107362038,1,0.0016052209539338946,0.0015606029191985726,0.0016183070838451385,0.0003506222565192729,-0.0010509483981877565,-9.817371368408203,0,0,30.927268981933594,1,1,760,800
1778515989.22002506,107402855,0,0.001459553837776184,0.0014979419065639377,0.0015921449521556497,-0.0007075669127516448,-0.000826322240754962,-9.816865921020508,0,0,30.92914581298828,1,1,1000,1000
1778515989.22002506,107402855,1,0.0014191988157108426,0.0015410706400871277,0.0016077009495347738,-0.001268915832042694,-0.00039473167271353304,-9.816812515258789,0,0,30.92914581298828,1,1,760,800
1778515989.26000905,107442839,0,0.0015371630433946848,0.001547235413454473,0.0015194868901744485,-0.0014359643682837486,-0.0005399511428549886,-9.81808090209961,0,0,30.93102264404297,1,1,1000,1000
1778515989.26000905,107442839,1,0.0014855219051241875,0.0013683483703061938,0.0015839962288737297,-0.0009567412198521197,-0.0016502742655575275,-9.819608688354492,0,0,30.93102264404297,1,1,760,800
1778515989.29999304,107482823,0,0.0015928667271509767,0.0015208566328510642,0.0015187362441793084,-4.856351006310433e-05,-0.0011496697552502155,-9.81769847869873,0,0,30.932897567749023,1,1,1000,1000
1778515989.29999304,107482823,1,0.0015834833029657602,0.0013931224821135402,0.0014155908720567822,-0.0014862566022202373,-0.0014706050278618932,-9.815706253051758,0,0,30.932849884033203,1,1,760,800
1778515989.33997703,107522807,0,0.001529891393147409,0.0015263597015291452,0.0015847450122237206,-0.0013277602847665548,-0.0004498968773987144,-9.816920280456543,0,0,30.934772491455078,1,1,1000,1000
1778515989.33997703,107522807,1,0.0012614381266757846,0.00148905033711344,0.0015529347583651543,-0.00010424273204989731,5.389000216382556e-05,-9.816878318786621,0,0,30.93472671508789,1,1,760,800
1778515989.37996125,107562791,0,0.001445756759494543,0.0015251663280650973,0.001495466334745288,-0.0005875761271454394,-0.0010160573292523623,-9.816615104675293,0,0,30.936647415161133,1,1,1000,1000
1778515989.37996125,107562791,1,0.0014285290380939841,0.0016241124831140041,0.0014448640868067741,0.0004226542660035193,0.0009351465268991888,-9.817573547363281,0,0,30.936601638793945,1,1,760,800
1778515989.41994524,107602775,0,0.0015017075929790735,0.0015465948963537812,0.0015391013585031033,-0.002063895808532834,-0.0012868862831965089,-9.817913055419922,0,0,30.938522338867188,1,1,1000,1000
1778515989.41994524,107602775,1,0.0014296728186309338,0.001200246624648571,0.0013846284709870815,0.00012481956218834966,-0.0009139195317402482,-9.816482543945312,0,0,30.9384765625,1,1,760,800
1778515989.45992923,107642759,0,0.0015100223245099187,0.0015865087043493986,0.0015034273965284228,-0.00036969868233427405,-0.0006618155748583376,-9.817434310913086,0,0,30.940399169921875,1,1,1000,1000
1778515989.45992923,107642759,1,0.0017468935111537576,0.0015192083083093166,0.0015990652609616518,-0.00017960218247026205,-0.002180902287364006,-9.818050384521484,0,0,30.940349578857422,1,1,760,800
1778515989.49991322,107682743,0,0.001494482159614563,0.001480132807046175,0.0015632417052984238,-0.000797373941168189,-0.0002712002897169441,-9.817113876342773,0,0,30.942272186279297,1,1,1000,1000
1778515989.49991322,107682743,1,0.0013800477609038353,0.0016618141671642661,0.0012408590409904718,-0.0012381512206047773,-0.002504002535715699,-9.81756591796875,0,0,30.94222640991211,1,1,760,800
1778515989.53989720,107722727,0,0.0015986984362825751,0.0015410424675792456,0.0015676659531891346,-0.0006411243230104446,-0.0011132488725706935,-9.816523551940918,0,0,30.94414710998535,1,1,1000,1000
1778515989.53989720,107722727,1,0.0014529852196574211,0.0015230957651510835,0.001458074664697051,-0.001554636750370264,-0.0008948813192546368,-9.818319320678711,0,0,30.94409942626953,1,1,760,800
1778515989.57988119,107762711,0,0.0015636238967999816,0.0015883580781519413,0.0014857134083285928,-0.001002199947834015,-0.0007286450127139688,-9.818604469299316,0,0,30.946022033691406,1,1,1000,1000
1778515989.57988119,107762711,1,0.0014220376033335924,0.0014230958186089993,0.0015016724355518818,-0.0012838398106396198,-0.003332555992528796,-9.81905746459961,0,0,30.945972442626953,1,1,760,800
1778515989.61986518,107802695,0,0.001581043703481555,0.0015936610288918018,0.0014900264795869589,-0.001360878930427134,-0.00022201919637154788,-9.817790985107422,0,0,30.947895050048828,1,1,1000,1000
1778515989.61986518,107802695,1,0.001367602963000536,0.0014684003544971347,0.0018216334283351898,-0.0028660050593316555,-0.0013930428540334105,-9.818941116333008,0,0,30.947847366333008,1,1,760,800
1778515989.65984917,107842679,0,0.0016293023945763707,0.0015403854195028543,0.001490087597630918,-0.001092930673621595,-0.0002485250006429851,-9.81761646270752,0,0,30.94976806640625,1,1,1000,1000
1778515989.65984917,107842679,1,0.001510084723122418,0.0015198864275589585,0.0019108648411929607,-0.002860432956367731,0.0011473934864625335,-9.820168495178223,0,0,30.949722290039062,1,1,760,800
1778515989.69983315,107882663,0,0.0015759088564664125,0.0014762382488697767,0.0015226247487589717,-0.0003675036714412272,-0.0007715469691902399,-9.81694507598877,0,0,30.951641082763672,1,1,1000,1000
1778515989.69983315,107882663,1,0.0016131337033584714,0.0012467268388718367,0.0017274252604693174,-0.00041222007712349296,-0.0016032166313380003,-9.819052696228027,0,0,30.951595306396484,1,1,760,800
1778515989.73981714,107922647,0,0.0014926170697435737,0.001574355992488563,0.0015341946855187416,-0.0008326184470206499,-0.0017236347775906324,-9.816529273986816,0,0,30.953514099121094,1,1,1000,1000
1778515989.73981714,107922647,1,0.0013299320125952363,0.0015224214876070619,0.0013093834277242422,-0.0036349110305309296,-0.00033535665716044605,-9.815462112426758,0,0,30.953466415405273,1,1,760,800
1778515989.77980113,107962631,0,0.001524306833744049,0.0015152653213590384,0.001578959752805531,-0.0019635541830211878,-0.0008209972875192761,-9.817788124084473,0,0,30.955387115478516,1,1,1000,1000
1778515989.77980113,107962631,1,0.0014648234937340021,0.0013438258320093155,0.0016885558143258095,-0.0010515027679502964,-0.0024689706042408943,-9.815938949584961,0,0,30.955339431762695,1,1,760,800
1778515989.81978512,108002615,0,0.0015902386512607336,0.001572690438479185,0.0014993565855547786,0.00031298206886276603,-0.0010349451331421733,-9.817828178405762,0,0,30.957260131835938,1,1,1000,1000
1778515989.81978512,108002615,1,0.001282944343984127,0.0016463598003610969,0.0015305180568248034,-0.002791952108964324,-0.0009511982789263129,-9.817333221435547,0,0,30.957212448120117,1,1,760,800
1778515989.85976911,108042599,0,0.0016422393964603543,0.0014916801592335105,0.0015203988878056407,-0.0009113912237808108,-0.0017792443977668881,-9.817760467529297,0,0,30.959131240844727,1,1,1000,1000
1778515989.85976911,108042599,1,0.001561047276481986,0.0016561623197048903,0.0014415534678846598,-0.00042082922300323844,-0.0020515979267656803,-9.81839656829834,0,0,30.95908546447754,1,1,760,800
1778515989.89975309,108082583,0,0.0015419293195009232,0.001582380966283381,0.0014771881978958845,-0.0015096795978024602,-0.0008566533215343952,-9.817611694335938,0,0,30.961002349853516,1,1,1000,1000
1778515989.89975309,108082583,1,0.0013538257917389274,0.001300400821492076,0.001672261510975659,-0.0021852299105376005,-0.0008734414586797357,-9.815801620483398,0,0,30.960956573486328,1,1,760,800
1778515989.93973708,108122567,0,0.001587125938385725,0.0015519887674599886,0.0015720054507255554,-0.0010627883020788431,-0.0010843584313988686,-9.817062377929688,0,0,30.962875366210938,1,1,1000,1000
1778515989.93973708,108122567,1,0.0015311773167923093,0.0016992406453937292,0.0013005777727812529,-0.0005576062249019742,-0.0015707449056208134,-9.816020011901855,0,0,30.96282958984375,1,1,760,800
1778515989.97972107,108162551,0,0.001522348029538989,0.001558766351081431,0.0015075206756591797,-0.001009365078061819,-0.0006935527198947966,-9.818209648132324,0,0,30.964746475219727,1,1,1000,1000
1778515989.97972107,108162551,1,0.0018035959219560027,0.001873177825473249,0.0015969385858625174,-0.0007991649326868355,0.0023579970002174377,-9.817305564880371,0,0,30.964746475219727,1,1,760,800
1778515990.01970506,108202535,0,0.0015888905618339777,0.0015167455421760678,0.0014854990877211094,-0.0010777267161756754,-0.00015822998830117285,-9.817298889160156,0,0,30.966617584228516,1,1,1000,1000
1778515990.01970506,108202535,1,0.0016486182576045394,0.001288720523007214,0.0014864086406305432,-0.0032246303744614124,-0.0013739856658503413,-9.81692123413086,0,0,30.966617584228516,1,1,760,800
1778515990.05968904,108242519,0,0.0015338303055614233,0.001524412538856268,0.0014909645542502403,-0.0010064011439681053,-0.0010417578741908073,-9.817971229553223,0,0,30.968488693237305,1,1,1000,1000
1778515990.05968904,108242519,1,0.001685870811343193,0.001696455292403698,0.0015215992461889982,5.6133394537027925e-05,-0.00118068209849298,-9.818613052368164,0,0,30.968488693237305,1,1,760,800
1778515990.09967303,108282503,0,0.0015801466070115566,0.0015865882160142064,0.0015144627541303635,-0.0010172150796279311,-0.0016589388251304626,-9.817184448242188,0,0,30.970359802246094,1,1,1000,1000
1778515990.09967303,108282503,1,0.0012212959118187428,0.0014319102047011256,0.0015064518665894866,0.0006040867883712053,-0.004090595990419388,-9.817716598510742,0,0,30.970359802246094,1,1,760,800
1778515990.13965726,108322487,0,0.0015735810156911612,0.0015853340737521648,0.0015754204941913486,-0.0011076577939093113,-0.0005606663762591779,-9.817483901977539,0,0,30.972230911254883,1,1,1000,1000
1778515990.13965726,108322487,1,0.0015335320495069027,0.001605962635949254,0.0016992174787446856,0.0016180963721126318,0.00030783776310272515,-9.81666374206543,0,0,30.972230911254883,1,1,760,800
1778515990.17964125,108362471,0,0.0014919620007276535,0.0015710816951468587,0.0016230824403464794,-0.0010986330453306437,-0.0009811320342123508,-9.818225860595703,0,0,30.974102020263672,1,1,1000,1000
1778515990.17964125,108362471,1,0.0015466129407286644,0.0017269115196540952,0.001457668375223875,-6.707508873660117e-05,0.0006689868168905377,-9.816612243652344,0,0,30.974102020263672,1,1,760,800
1778515990.21962523,108402455,0,0.001574843656271696,0.0015322566032409668,0.0015415672678500414,-0.001287439838051796,-0.002424560720100999,-9.816742897033691,0,0,30.975971221923828,1,1,1000,1000
1778515990.21962523,108402455,1,0.0014687441289424896,0.0015499633736908436,0.0015810065669938922,0.000566361821256578,0.001126788672991097,-9.817831039428711,0,0,30.975971221923828,1,1,760,800
1778515990.25960922,108442439,0,0.0015381461707875133,0.0015250607393682003,0.0015153903514146805,-0.0008990222122520208,-0.0012021437287330627,-9.817285537719727,0,0,30.977840423583984,1,1,1000,1000
1778515990.25960922,108442439,1,0.0017801288049668074,0.001713523524813354,0.0012308605946600437,-0.0012971247779205441,-0.001988726668059826,-9.818777084350586,0,0,30.977840423583984,1,1,760,800
1778515990.29959321,108482423,0,0.0015155491419136524,0.0015505108749493957,0.0015411897329613566,-0.0006028258358128369,-0.0007495499448850751,-9.816658020019531,0,0,30.97970962524414,1,1,1000,1000
1778515990.29959321,108482423,1,0.001449446426704526,0.001507580396719277,0.0014400393702089787,-0.0032264108303934336,-0.0018896807450801134,-9.816204071044922,0,0,30.97970962524414,1,1,760,800
1778515990.33957720,108522407,0,0.0015539067098870873,0.001487484434619546,0.0016326159238815308,-0.0014579491689801216,-0.0010756260016933084,-9.817870140075684,0,0,30.981578826904297,1,1,1000,1000
1778515990.33957720,108522407,1,0.0014636609703302383,0.0016054784646257758,0.001646459917537868,-0.0014598558191210032,-0.001012696884572506,-9.820243835449219,0,0,30.981578826904297,1,1,760,800
1778515990.37956119,108562391,0,0.0014871853636577725,0.001603981014341116,0.001506571308709681,-0.0017269134987145662,-0.0011191427474841475,-9.81782341003418,0,0,30.983448028564453,1,1,1000,1000
1778515990.37956119,108562391,1,0.0014744957443326712,0.001573403482325375,0.0016303008887916803,-0.0004982373211532831,-0.00011476063809823245,-9.81766128540039,0,0,30.983448028564453,1,1,760,800
1778515990.41954517,108602375,0,0.0016208344604820013,0.001530844485387206,0.0016193909104913473,-0.00033490313217043877,-0.0009599688928574324,-9.81736946105957,0,0,30.98531723022461,1,1,1000,1000
1778515990.41954517,108602375,1,0.0016538964118808508,0.0016122907400131226,0.0013492780271917582,0.00019405096827540547,0.00012462092854548246,-9.817706108093262,0,0,30.98531723022461,1,1,760,800
1778515990.45952916,108642359,0,0.0015138265443965793,0.0015201333444565535,0.0015447589103132486,-0.0012530023232102394,-0.00014600604481529444,-9.817039489746094,0,0,30.987186431884766,1,1,1000,1000
1778515990.45952916,108642359,1,0.0016304372111335397,0.0017592518124729395,0.0016159720253199339,-0.0003023537283297628,-0.000622242281679064,-9.81710147857666,0,0,30.987186431884766,1,1,760,800
1778515990.49951315,108682343,0,0.001557709532789886,0.001504856743849814,0.001596100046299398,-0.0013931832509115338,-0.0004938712227158248,-9.817930221557617,0,0,30.98905372619629,1,1,1000,1000
1778515990.49951315,108682343,1,0.001537575852125883,0.001451296964660287,0.0015300634549930692,0.0005951559287495911,0.0010874397121369839,-9.819032669067383,0,0,30.98905372619629,1,1,760,800
1778515990.53949714,108722327,0,0.0015888697234913707,0.0015804533613845706,0.001521941157989204,-0.0002505330485291779,-0.0018220015335828066,-9.81737232208252,0,0,30.990921020507812,1,1,1000,1000
1778515990.53949714,108722327,1,0.0014714435674250126,0.0016187138389796019,0.0016309862257912755,-0.0017610621871426702,0.0003640387440100312,-9.817893981933594,0,0,30.990921020507812,1,1,760,800
1778515990.57948112,108762311,0,0.0015471370425075293,0.0015676748007535934,0.0015379779506474733,7.712141814408824e-05,-0.00044804843491874635,-9.817501068115234,0,0,30.99279022216797,1,1,1000,1000
1778515990.57948112,108762311,1,0.0014361138455569744,0.0018774705240502954,0.0015062327729538083,0.000754467910155654,-0.003909809049218893,-9.816819190979004,0,0,30.99279022216797,1,1,760,800
1778515990.61946511,108802295,0,0.0015562342014163733,0.0015854787779971957,0.0015249318676069379,-0.00036706094397231936,-0.0016430006362497807,-9.817323684692383,0,0,30.99465560913086,1,1,1000,1000
1778515990.61946511,108802295,1,0.001636743312701583,0.0016626568976789713,0.0012147807283326983,-0.0016962746158242226,-0.0013628812739625573,-9.818305969238281,0,0,30.99465560913086,1,1,760,800
1778515990.65944910,108842279,0,0.0016942236106842756,0.0014122443972155452,0.001460247440263629,-0.001266801729798317,-0.0016617134679108858,-9.818023681640625,0,0,30.996524810791016,1,1,1000,1000
1778515990.65944910,108842279,1,0.001456468366086483,0.001371830701828003,0.0015894967364147305,-0.0008981815772131085,0.000524507078807801,-9.818387031555176,0,0,30.996524810791016,1,1,760,800
1778515990.69943309,108882263,0,0.001585401245392859,0.001571369357407093,0.001555964583531022,-0.0006398237310349941,-0.0014644362963736057,-9.816728591918945,0,0,30.998390197753906,1,1,1000,1000
1778515990.69943309,108882263,1,0.0013287218753248453,0.001642657327465713,0.0017946851439774036,0.00023954080825205892,-0.0021153532434254885,-9.817998886108398,0,0,30.998390197753906,1,1,760,800
1778515990.73941708,108922247,0,0.0015565188368782401,0.0015843968139961362,0.0015529933152720332,-0.001735373167321086,-0.0015621315687894821,-9.81696605682373,0,0,31.00025749206543,1,1,1000,1000
1778515990.73941708,108922247,1,0.0014769587432965636,0.0018244415987282991,0.001584207988344133,-0.0028411985840648413,0.00030511035583913326,-9.819829940795898,0,0,31.00025749206543,1,1,760,800
1778515990.77940106,108962231,0,0.0015077295247465372,0.0015875815879553556,0.0015500686131417751,-0.0015908540226519108,-0.0013754448154941201,-9.817764282226562,0,0,31.002079010009766,1,1,1000,1000
1778515990.77940106,108962231,1,0.0017242544563487172,0.0013921112986281514,0.0014957382809370756,-0.0009225907269865274,-0.002597495447844267,-9.816238403320312,0,0,31.002124786376953,1,1,760,800
1778515990.81938505,109002215,0,0.001540643977932632,0.0014684436609968543,0.0015104756457731128,-0.0016796073177829385,-0.0012152947019785643,-9.816749572753906,0,0,31.003944396972656,1,1,1000,1000
1778515990.81938505,109002215,1,0.001499772071838379,0.001690459786914289,0.0016938975313678384,-0.0026979292742908,0.001285454025492072,-9.819157600402832,0,0,31.003990173339844,1,1,760,800
1778515990.85936904,109042199,0,0.0015160472830757499,0.0015710226725786924,0.0015664056409150362,-0.0019749568309634924,-0.0010691409697756171,-9.817252159118652,0,0,31.005809783935547,1,1,1000,1000
1778515990.85936904,109042199,1,0.0016738055273890495,0.0014260192401707172,0.0014282852644100785,-0.005222516134381294,-0.0028960455674678087,-9.815876960754395,0,0,31.005857467651367,1,1,760,800
1778515990.89935303,109082183,0,0.0015025571919977665,0.001546097337268293,0.0014889050507918,-0.0013311676448211074,-0.0009588601533323526,-9.817144393920898,0,0,31.007675170898438,1,1,1000,1000
1778515990.89935303,109082183,1,0.0016160199884325266,0.0018192471470683813,0.0012985407374799252,-0.0008928623865358531,-0.0005333154113031924,-9.818269729614258,0,0,31.007722854614258,1,1,760,800
1778515990.93933725,109122167,0,0.001583949662744999,0.0015687907580286264,0.0016272143693640828,-0.0014762688660994172,-0.0017641448648646474,-9.816150665283203,0,0,31.009540557861328,1,1,1000,1000
1778515990.93933725,109122167,1,0.0014883826952427626,0.001570825814269483,0.0016286063473671675,3.2163763535209e-05,-0.002236113650724292,-9.816659927368164,0,0,31.00958824157715,1,1,760,800
1778515990.97932124,109162151,0,0.0015679469797760248,0.0015008080517873168,0.0015381819102913141,-0.0015592200215905905,-0.0021753052715212107,-9.818195343017578,0,0,31.01140594482422,1,1,1000,1000
1778515990.97932124,109162151,1,0.0015260428190231323,0.0015691296430304646,0.0013578042853623629,-0.0011532938806340098,-0.004653353244066238,-9.817191123962402,0,0,31.01145362854004,1,1,760,800
1778515991.01930523,109202135,0,0.0015221313806250691,0.0016076368046924472,0.0015406564343720675,-0.0009147563832812011,-0.0009100998868234456,-9.817490577697754,0,0,31.01327133178711,1,1,1000,1000
1778515991.01930523,109202135,1,0.0016248389147222042,0.0014975491212680936,0.0017336058663204312,0.0001327500503975898,-0.002314884914085269,-9.815610885620117,0,0,31.013317108154297,1,1,760,800
1778515991.05928922,109242119,0,0.0015051488298922777,0.0015637450851500034,0.0016067945398390293,-0.0011985533637925982,-0.0014070728793740273,-9.817646026611328,0,0,31.01513671875,1,1,1000,1000
1778515991.05928922,109242119,1,0.0015237231273204088,0.0015551401302218437,0.0014737513847649097,-0.002768891165032983,-0.003847168991342187,-9.817079544067383,0,0,31.015182495117188,1,1,760,800
1778515991.09927320,109282103,0,0.0016822380712255836,0.0015090364031493664,0.0014991515781730413,-0.0003767969901673496,-0.0019771670922636986,-9.818517684936523,0,0,31.017000198364258,1,1,1000,1000
1778515991.09927320,109282103,1,0.0017969857435673475,0.0013575144112110138,0.0017066429136320949,-0.0019304179586470127,-0.0007162628462538123,-9.815423011779785,0,0,31.017047882080078,1,1,760,800
1778515991.13925719,109322087,0,0.0016213265480473638,0.0015672671142965555,0.0016411556862294674,-0.0007451866986230016,-0.0009187338291667402,-9.8178129196167,0,0,31.01886558532715,1,1,1000,1000
1778515991.13925719,109322087,1,0.001598196104168892,0.0013878318713977933,0.0016877669841051102,-0.0012984558707103133,-1.4173092495184392e-05,-9.820212364196777,0,0,31.018911361694336,1,1,760,800
1778515991.17924118,109362071,0,0.0016039008041843772,0.0015631341375410557,0.0015097917057573795,-0.0012445582542568445,-0.0007116241613402963,-9.817856788635254,0,0,31.020729064941406,1,1,1000,1000
1778515991.17924118,109362071,1,0.0017352905124425888,0.0015644163358956575,0.0016037151217460632,-0.0005264620995149016,-0.0006124982028268278,-9.817041397094727,0,0,31.020774841308594,1,1,760,800
1778515991.21922517,109402055,0,0.0015581406187266111,0.0014955067308619618,0.001535999123007059,-0.0009342195698991418,-0.0007342184544540942,-9.817314147949219,0,0,31.022640228271484,1,1,1000,1000
1778515991.21922517,109402055,1,0.0014316783053800464,0.001526861684396863,0.0015575176803395152,-0.0021534892730414867,-0.0022477286402136087,-9.817483901977539,0,0,31.022640228271484,1,1,760,800
1778515991.25920916,109442039,0,0.0015829012263566256,0.0015407291939482093,0.0015873718075454235,-0.00011533165525179356,-0.0013778525171801448,-9.817817687988281,0,0,31.02450180053711,1,1,1000,1000
1778515991.25920916,109442039,1,0.0015335873467847705,0.001691740471869707,0.0017135333037003875,0.00032216671388596296,-0.0029661189764738083,-9.816500663757324,0,0,31.02450180053711,1,1,760,800
1778515991.30002618,109482856,0,0.0015688752755522728,0.0016154509503394365,0.0015745710115879774,-0.0023443137761205435,-0.000633358780760318,-9.817232131958008,0,0,31.026365280151367,1,1,1000,1000
1778515991.30002618,109482856,1,0.0013439205940812826,0.0015403151046484709,0.001636840170249343,-2.2321783035295084e-06,-0.0014109639450907707,-9.817039489746094,0,0,31.026365280151367,1,1,760,800
1778515991.34001017,109522840,0,0.0015332428738474846,0.001512606511823833,0.0015497609274461865,-0.0008357007172890007,-0.0006785027217119932,-9.81749153137207,0,0,31.028228759765625,1,1,1000,1000
1778515991.34001017,109522840,1,0.0015192996943369508,0.0015559513121843338,0.0016793448012322187,-0.0036247684620320797,-0.0001617849775357172,-9.815973281860352,0,0,31.028228759765625,1,1,760,800
1778515991.37999415,109562824,0,0.0015214844606816769,0.0016050504054874182,0.001483581610955298,-0.0017087621381506324,-0.0005362944793887436,-9.817547798156738,0,0,31.030092239379883,1,1,1000,1000
1778515991.37999415,109562824,1,0.0015564095228910446,0.0018218994373455644,0.0016357859130948782,-0.0015657370677217841,-0.0005425461567938328,-9.81894302368164,0,0,31.030044555664062,1,1,760,800
1778515991.41997814,109602808,0,0.00155130575876683,0.0015754875494167209,0.0016250631306320429,-0.0013792493846267462,-0.0012892162194475532,-9.817167282104492,0,0,31.031953811645508,1,1,1000,1000
1778515991.41997814,109602808,1,0.0016979514621198177,0.0016793045215308666,0.001429403549991548,-0.0013007941888645291,0.0002882902626879513,-9.820205688476562,0,0,31.03190803527832,1,1,760,800
1778515991.45996213,109642792,0,0.001539568416774273,0.0015534150879830122,0.001590788015164435,-0.0012241574004292488,-0.0007493178709410131,-9.817838668823242,0,0,31.033817291259766,1,1,1000,1000
1778515991.45996213,109642792,1,0.001492481678724289,0.0012409351766109467,0.001675814506597817,-0.00019244052236899734,0.0011616389965638518,-9.817508697509766,0,0,31.033769607543945,1,1,760,800
1778515991.49994612,109682776,0,0.0015180637128651142,0.001630819751881063,0.00151052325963974,-0.0016218252712860703,-0.0015381400007754564,-9.817743301391602,0,0,31.03567886352539,1,1,1000,1000
1778515991.49994612,109682776,1,0.0014628723729401827,0.0015406280290335417,0.0015110281528905034,-0.00018661748617887497,-0.0014477194054052234,-9.816691398620605,0,0,31.035633087158203,1,1,760,800
1778515991.53993011,109722760,0,0.001535132760182023,0.0015349340392276645,0.0015983694465830922,-0.0008058109087869525,-0.0021929768845438957,-9.817374229431152,0,0,31.037540435791016,1,1,1000,1000
1778515991.53993011,109722760,1,0.00185848877299577,0.0014670356176793575,0.001939592882990837,-0.0014689343515783548,-0.0018225982785224915,-9.81724739074707,0,0,31.037494659423828,1,1,760,800
1778515991.57991409,109762744,0,0.0015716770431026816,0.0015579038299620152,0.0015840587439015508,-0.0005530642229132354,-0.0014738294994458556,-9.817221641540527,0,0,31.03940200805664,1,1,1000,1000
1778515991.57991409,109762744,1,0.0016121729277074337,0.0014220309676602483,0.0017108606407418847,-0.003264541970565915,0.00018821794947143644,-9.818645477294922,0,0,31.039356231689453,1,1,760,800
1778515991.61989808,109802728,0,0.0015694781905040145,0.0015672044828534126,0.0015294585609808564,-0.0008551895152777433,-0.0007749709766358137,-9.816454887390137,0,0,31.041263580322266,1,1,1000,1000
1778515991.61989808,109802728,1,0.0016420723404735327,0.0016111694276332855,0.0013574812328442931,-0.0014150587376207113,-0.00022015334980096668,-9.816865921020508,0,0,31.041217803955078,1,1,760,800
1778515991.65988207,109842712,0,0.0015357602387666702,0.001605174271389842,0.0016081316862255335,-0.0019768562633544207,-0.0010098200291395187,-9.817469596862793,0,0,31.04312515258789,1,1,1000,1000
1778515991.65988207,109842712,1,0.0013737864792346954,0.0014651413075625896,0.0013012869749218225,-0.0019789133220911026,-0.0005876415525563061,-9.818891525268555,0,0,31.04307746887207,1,1,760,800
1778515991.69986606,109882696,0,0.0015040552243590355,0.0014933610800653696,0.0015106924111023545,-0.0015200095949694514,-0.0013213036581873894,-9.81747817993164,0,0,31.044984817504883,1,1,1000,1000
1778515991.69986606,109882696,1,0.00164614780806005,0.0017560890410095453,0.0016587574500590563,-0.002654725220054388,-0.001192294410429895,-9.818090438842773,0,0,31.044939041137695,1,1,760,800
1778515991.73985004,109922680,0,0.0016529078129678965,0.001514133531600237,0.0015987661899998784,-0.0008820114890113473,-0.0011953379726037383,-9.81700325012207,0,0,31.046846389770508,1,1,1000,1000
1778515991.73985004,109922680,1,0.0014588027261197567,0.0014172109076753259,0.001598553266376257,-8.693008567206562e-05,-0.002504813950508833,-9.816258430480957,0,0,31.046798706054688,1,1,760,800
1778515991.77983403,109962664,0,0.0016041863709688187,0.0015316379722207785,0.0015471756923943758,-0.001611500047147274,-0.0012768786400556564,-9.817776679992676,0,0,31.0487060546875,1,1,1000,1000
1778515991.77983403,109962664,1,0.0016606312710791826,0.0016159379156306386,0.0015720714582130313,6.447027408285066e-05,-0.00399805000051856,-9.816507339477539,0,0,31.048660278320312,1,1,760,800
1778515991.81981826,110002648,0,0.0015422124415636063,0.0015455343527719378,0.0015768632292747498,-0.0005659542512148619,-0.001423546695150435,-9.817028045654297,0,0,31.050567626953125,1,1,1000,1000
1778515991.81981826,110002648,1,0.0016863229684531689,0.001410844037309289,0.0017307439120486379,-0.0018612241838127375,-0.0008838719222694635,-9.817092895507812,0,0,31.050519943237305,1,1,760,800
1778515991.85980225,110042632,0,0.001560693490318954,0.0014887077268213034,0.0015740706585347652,-0.0013166113058105111,0.0005186866619624197,-9.818262100219727,0,0,31.052425384521484,1,1,1000,1000
1778515991.85980225,110042632,1,0.0015926208579912782,0.0015887664631009102,0.0015437155961990356,0.000739069189876318,-0.0027391763869673014,-9.8172607421875,0,0,31.052379608154297,1,1,760,800
1778515991.89978623,110082616,0,0.0016276692040264606,0.0015433187363669276,0.0015293606556952,-0.0007328889332711697,-0.001254085567779839,-9.818161964416504,0,0,31.05428695678711,1,1,1000,1000
1778515991.89978623,110082616,1,0.001590093830600381,0.0015502767637372017,0.0015542255714535713,-0.0006213783635757864,-0.0013124607503414154,-9.818193435668945,0,0,31.05423927307129,1,1,760,800
1778515991.93977022,110122600,0,0.001602695556357503,0.0015747657744213939,0.0016606583958491683,-0.0012998029123991728,-0.00048584811156615615,-9.81706714630127,0,0,31.05614471435547,1,1,1000,1000
1778515991.93977022,110122600,1,0.0017299677710980177,0.001536354306153953,0.0014287736266851425,-0.002601431915536523,-0.001839078264310956,-9.816397666931152,0,0,31.05609893798828,1,1,760,800
1778515991.97975421,110162584,0,0.0015535836573690176,0.0015614039730280638,0.0015602803323417902,-0.00045393657637760043,-0.0009844559244811535,-9.817399978637695,0,0,31.05800437927246,1,1,1000,1000
1778515991.97975421,110162584,1,0.0015751052414998412,0.0015410660998895764,0.0018055771943181753,0.0007274436065927148,0.0007521061925217509,-9.817487716674805,0,0,31.05795669555664,1,1,760,800
1778515992.01973820,110202568,0,0.0016780045116320252,0.0015023548621684313,0.0015531262615695596,-0.0009427027544006705,-0.001006805570796132,-9.818155288696289,0,0,31.05986213684082,1,1,1000,1000
1778515992.01973820,110202568,1,0.0014990934869274497,0.0016464033396914601,0.00156501738820225,0.00039676835876889527,0.00022039948089513928,-9.817405700683594,0,0,31.059816360473633,1,1,760,800
1778515992.05972219,110242552,0,0.0014886341523379087,0.0015270330477505922,0.0016265667509287596,-0.0020402236841619015,-0.0016981923254206777,-9.816607475280762,0,0,31.061721801757812,1,1,1000,1000
1778515992.05972219,110242552,1,0.001598927890881896,0.0013895019656047225,0.0016810991801321507,0.0010155622148886323,-0.0024479813873767853,-9.818283081054688,0,0,31.061721801757812,1,1,760,800
1778515992.09970617,110282536,0,0.001586530590429902,0.0015746327117085457,0.0014695408754050732,-0.001332625513896346,-0.0011324454098939896,-9.816800117492676,0,0,31.063579559326172,1,1,1000,1000
1778515992.09970617,110282536,1,0.0017398541094735265,0.0018101712921634316,0.0014646664494648576,-0.0023009683936834335,-0.0005557214608415961,-9.815925598144531,0,0,31.063579559326172,1,1,760,800
1778515992.13969016,110322520,0,0.0015307023422792554,0.0015830972697585821,0.0014938997337594628,-0.0006908529903739691,-0.0008194333640858531,-9.817523956298828,0,0,31.06543731689453,1,1,1000,1000
1778515992.13969016,110322520,1,0.0015603743959218264,0.0018789225723594427,0.001709104049950838,-0.0015088793588802218,-0.003914626315236092,-9.817480087280273,0,0,31.06543731689453,1,1,760,800
1778515992.17967415,110362504,0,0.0016151908785104752,0.001588186016306281,0.0016191148897632957,-0.0018723915563896298,-0.0006039671134203672,-9.81744384765625,0,0,31.06729507446289,1,1,1000,1000
1778515992.17967415,110362504,1,0.0015051908558234572,0.0013533438323065639,0.0017778610344976187,0.00016416303697042167,-0.0019568956922739744,-9.818222999572754,0,0,31.06729507446289,1,1,760,800
1778515992.21965814,110402488,0,0.0015571388648822904,0.0014663003385066986,0.0015889835776761174,-0.0015632890863344073,-0.001058856025338173,-9.817384719848633,0,0,31.06915283203125,1,1,1000,1000
1778515992.21965814,110402488,1,0.001440073479898274,0.001843794947490096,0.0013875252334401011,-0.0010024959919974208,-0.0018667991971597075,-9.816095352172852,0,0,31.06915283203125,1,1,760,800
1778515992.25964212,110442472,0,0.0015475294785574079,0.00155039899982512,0.001614052220247686,-0.001394602470099926,0.0001882701035356149,-9.81674575805664,0,0,31.07101058959961,1,1,1000,1000
1778515992.25964212,110442472,1,0.001670514466241002,0.0014608828350901604,0.0014691920951008797,-0.0021293391473591328,-0.0005762389628216624,-9.818471908569336,0,0,31.07101058959961,1,1,760,800
1778515992.29962611,110482456,0,0.001567554078064859,0.0015167451929301023,0.0015622635837644339,-0.000999867101199925,-0.002173145767301321,-9.81791877746582,0,0,31.072866439819336,1,1,1000,1000
1778515992.29962611,110482456,1,0.001641855575144291,0.0014507154701277614,0.0015492216916754842,0.0007196551887318492,-0.0027308627031743526,-9.817611694335938,0,0,31.072866439819336,1,1,760,800
1778515992.33961010,110522440,0,0.00162327301222831,0.0015754785854369402,0.0015877969563007355,-0.002721259370446205,-0.0009074828703887761,-9.817269325256348,0,0,31.074724197387695,1,1,1000,1000
1778515992.33961010,110522440,1,0.001305598416365683,0.0015031195944175124,0.0015276598278433084,-0.0006881495355628431,-0.0006030160584487021,-9.815549850463867,0,0,31.074724197387695,1,1,760,800
1778515992.37959409,110562424,0,0.0016079494962468743,0.0015221316134557128,0.0015992377884685993,-0.0012332295300439,-0.00048433089978061616,-9.81759262084961,0,0,31.076580047607422,1,1,1000,1000
1778515992.37959409,110562424,1,0.0015604221262037754,0.0015251210425049067,0.0016255276277661324,0.0009253633907064795,-0.0004577104700729251,-9.817842483520508,0,0,31.076580047607422,1,1,760,800
1778515992.41957808,110602408,0,0.0015908288769423962,0.0015931742964312434,0.0015639415942132473,9.396683890372515e-05,-0.0010962997330352664,-9.81775188446045,0,0,31.07843589782715,1,1,1000,1000
1778515992.41957808,110602408,1,0.001579333795234561,0.0017880132654681802,0.0016464445507153869,-0.000464532058686018,0.001229698653332889,-9.81808090209961,0,0,31.07843589782715,1,1,760,800
1778515992.45956206,110642392,0,0.0015439960407093167,0.0015962689649313688,0.0015818728134036064,-0.0017187398625537753,-0.0003490951785352081,-9.817079544067383,0,0,31.080291748046875,1,1,1000,1000
1778515992.45956206,110642392,1,0.0014004381373524666,0.0016086080577224493,0.0016560966614633799,0.0003704349510371685,-0.0006543698254972696,-9.816256523132324,0,0,31.080291748046875,1,1,760,800
1778515992.49954605,110682376,0,0.0015697296475991607,0.0015544892521575093,0.0016088646370917559,0.00039561663288623095,-0.0008728386601433158,-9.818449020385742,0,0,31.082149505615234,1,1,1000,1000
1778515992.49954605,110682376,1,0.0013303966261446476,0.0016658465610817075,0.0017055671196430922,-0.0006867281044833362,0.0011079638497903943,-9.818166732788086,0,0,31.082149505615234,1,1,760,800
1778515992.53953004,110722360,0,0.0015784577699378133,0.0015855580568313599,0.001571059226989746,3.885059413732961e-05,-0.0015509430086240172,-9.817809104919434,0,0,31.084003448486328,1,1,1000,1000
1778515992.53953004,110722360,1,0.0016456454759463668,0.0014373559970408678,0.0016398481093347073,-0.001544291852042079,-0.001311532687395811,-9.817571640014648,0,0,31.084003448486328,1,1,760,800
1778515992.57951403,110762344,0,0.0016059043118730187,0.0015628759283572435,0.0015715408371761441,-0.0019298618426546454,-0.0009285421692766249,-9.818470001220703,0,0,31.085861206054688,1,1,1000,1000
1778515992.57951403,110762344,1,0.0017743946518748999,0.001540721277706325,0.0016561979427933693,0.0017072407063096762,-0.0010955017060041428,-9.818619728088379,0,0,31.085861206054688,1,1,760,800
1778515992.61949825,110802328,0,0.0016096283216029406,0.0015910373767837882,0.0016361980233341455,-0.0014537757961079478,-0.0011363804806023836,-9.817218780517578,0,0,31.08771514892578,1,1,1000,1000
1778515992.61949825,110802328,1,0.0014889523154124618,0.0015543525805696845,0.0015700464136898518,-0.0007937767659313977,-0.003889132523909211,-9.81658935546875,0,0,31.08771514892578,1,1,760,800
1778515992.65948224,110842312,0,0.0015892456285655499,0.0015574297867715359,0.0015514773549512029,-0.0009539197781123221,-0.0010956083424389362,-9.816634178161621,0,0,31.089569091796875,1,1,1000,1000
1778515992.65948224,110842312,1,0.00167679856531322,0.0016902402276173234,0.0015447901096194983,-0.002331768861040473,-0.002165701473131776,-9.818052291870117,0,0,31.089569091796875,1,1,760,800
1778515992.69946623,110882296,0,0.0016093193553388119,0.0016055848682299256,0.00157482351642102,-0.0010405725333839655,-0.0016804239712655544,-9.817916870117188,0,0,31.09142303466797,1,1,1000,1000
1778515992.69946623,110882296,1,0.0015955147100612521,0.0016343058086931705,0.0015932753449305892,-8.85075714904815e-05,-0.0008358999621123075,-9.817365646362305,0,0,31.09142303466797,1,1,760,800
1778515992.73945022,110922280,0,0.0016074321465566754,0.0015494029503315687,0.001514837727881968,-0.0013785625342279673,-0.00017115619266405702,-9.818281173706055,0,0,31.093278884887695,1,1,1000,1000
1778515992.73945022,110922280,1,0.0013962947996333241,0.0015210321871563792,0.0014856039779260755,-0.002436228794977069,-0.00010678052785806358,-9.818710327148438,0,0,31.093278884887695,1,1,760,800
1778515992.77943420,110962264,0,0.0015611039707437158,0.0015754068735986948,0.0016014297725632787,-0.00041290518129244447,-0.00236487970687449,-9.817169189453125,0,0,31.09513282775879,1,1,1000,1000
1778515992.77943420,110962264,1,0.0015678557101637125,0.001638169283978641,0.0016586781712248921,-0.002563089830800891,-1.4762033970328048e-05,-9.818902015686035,0,0,31.09513282775879,1,1,760,800
1778515992.81941819,111002248,0,0.0016185290878638625,0.0016080864006653428,0.0016607766738161445,-0.0014555929228663445,-0.00039105041651055217,-9.817151069641113,0,0,31.096986770629883,1,1,1000,1000
1778515992.81941819,111002248,1,0.0015492266975343227,0.001658592140302062,0.0018224422819912434,0.001995466649532318,9.000266436487436e-05,-9.817575454711914,0,0,31.096986770629883,1,1,760,800
1778515992.85940218,111042232,0,0.001599754556082189,0.0015877127880230546,0.0015700918156653643,-0.0008189929067157209,-0.001398262451402843,-9.817752838134766,0,0,31.098793029785156,1,1,1000,1000
1778515992.85940218,111042232,1,0.0014186830958351493,0.001410793513059616,0.0015984425554051995,-0.0017973100766539574,0.00027622177731245756,-9.818333625793457,0,0,31.098840713500977,1,1,760,800
1778515992.89938617,111082216,0,0.0015646383399143815,0.001566555118188262,0.0015894691459834576,-0.0009308348526246846,-0.0007170512108132243,-9.81721019744873,0,0,31.10064697265625,1,1,1000,1000
1778515992.89938617,111082216,1,0.0016631420003250241,0.0017254790291190147,0.0016134229954332113,0.001136107137426734,-6.858106644358486e-05,-9.817357063293457,0,0,31.100692749023438,1,1,760,800
1778515992.93937016,111122200,0,0.0015368139138445258,0.0015563123160973191,0.0015104804188013077,-0.0014668199000880122,0.0003235906478948891,-9.81706428527832,0,0,31.102500915527344,1,1,1000,1000
1778515992.93937016,111122200,1,0.0015482432208955288,0.0015441194409504533,0.001603218843229115,-0.002927290042862296,-0.0032298420555889606,-9.816325187683105,0,0,31.10254669189453,1,1,760,800
1778515992.97935414,111162184,0,0.0016284271841868758,0.0015752019826322794,0.0015763257397338748,-0.0018065847689285874,-0.0006002577138133347,-9.817537307739258,0,0,31.104354858398438,1,1,1000,1000
1778515992.97935414,111162184,1,0.0015794211067259312,0.0015171890845522285,0.0014892261242493987,0.0001605022989679128,-0.0024916280526667833,-9.817660331726074,0,0,31.104400634765625,1,1,760,800
1778515993.01933813,111202168,0,0.001607992802746594,0.0015719454968348145,0.001576139242388308,-0.0008643673500046134,-0.001389367738738656,-9.817245483398438,0,0,31.106204986572266,1,1,1000,1000
1778515993.01933813,111202168,1,0.0016686419257894158,0.0015721293166279793,0.0016765441978350282,-0.000857210427056998,-0.0007370320963673294,-9.818014144897461,0,0,31.106252670288086,1,1,760,800
1778515993.05932212,111242152,0,0.0015835429076105356,0.0015630549751222134,0.0016249024774879217,-0.0005230808164924383,-0.0020002331584692,-9.81781005859375,0,0,31.10805892944336,1,1,1000,1000
1778515993.05932212,111242152,1,0.0017822438385337591,0.0016112461453303695,0.0016665973234921694,-0.0002839397347997874,-0.002601098269224167,-9.817346572875977,0,0,31.108104705810547,1,1,760,800
1778515993.09930611,111282136,0,0.0015803128480911255,0.0015857364051043987,0.0015904041938483715,-0.0015642608050256968,-0.0009629904525354505,-9.815766334533691,0,0,31.109909057617188,1,1,1000,1000
1778515993.09930611,111282136,1,0.0016357381828129292,0.0015472023515030742,0.001410079188644886,0.0008263766649179161,-0.0033832762856036425,-9.81483268737793,0,0,31.109956741333008,1,1,760,800
1778515993.13929009,111322120,0,0.00150877155829221,0.0015246291877701879,0.0016255881637334824,-0.000475142034702003,-0.0018951265374198556,-9.816507339477539,0,0,31.11176300048828,1,1,1000,1000
1778515993.13929009,111322120,1,0.0015709407161921263,0.001543491380289197,0.0016517575131729245,-0.0017707973020151258,-0.0008752179564908147,-9.817724227905273,0,0,31.11180877685547,1,1,760,800
1778515993.17927408,111362104,0,0.001560815842822194,0.0016035427106544375,0.0016047724056988955,-3.297566217952408e-05,0.00015795508807059377,-9.858839988708496,0,0,31.11361312866211,1,1,1000,1000
1778515993.17927408,111362104,1,0.0016269625630229712,0.00164566352032125,0.0015484706964343786,0.00043466518400236964,0.0011660442687571049,-9.854736328125,0,0,31.11366081237793,1,1,760,800
1778515993.21925807,111402088,0,0.0016123004024848342,0.0015801247209310532,0.0016208328306674957,-0.00016649600001983345,-0.0011575549142435193,-10.37412166595459,0,0,31.11546516418457,1,1,1000,1000
1778515993.21925807,111402088,1,0.0016577752539888024,0.0016638654051348567,0.0016566081903874874,-0.0005657962174154818,-0.0030290205031633377,-10.377320289611816,0,0,31.11551284790039,1,1,760,800
1778515993.25924206,111442072,0,0.001578266266733408,0.0015896153636276722,0.0015658369520679116,-0.002415331080555916,-0.002098134718835354,-10.456006050109863,0,0,31.11731719970703,1,1,1000,1000
1778515993.25924206,111442072,1,0.0016275984235107899,0.0014461860992014408,0.0017782347276806831,-0.002800543326884508,-0.0017561216372996569,-10.451925277709961,0,0,31.11736297607422,1,1,760,800
1778515993.29922605,111482056,0,0.0016292220680043101,0.0015735835768282413,0.0015869011403992772,-0.0003956681175623089,-0.001136568607762456,-10.360225677490234,0,0,31.119213104248047,1,1,1000,1000
1778515993.29922605,111482056,1,0.001657149288803339,0.001719270832836628,0.0014717213343828917,-0.0006368709146045148,-0.00020108932221774012,-10.357278823852539,0,0,31.119213104248047,1,1,760,800
1778515993.33921003,111522040,0,0.0015775462379679084,0.0015779819805175066,0.0015999762108549476,-0.0014272781554609537,-0.0012552622938528657,-10.392512321472168,0,0,31.121063232421875,1,1,1000,1000
1778515993.33921003,111522040,1,0.00156134064309299,0.001556617091409862,0.0015533084515482187,-0.0007302179001271725,0.0006151066045276821,-10.391118049621582,0,0,31.121063232421875,1,1,760,800
1778515993.38002706,111562857,0,0.0015827331226319075,0.0015897995326668024,0.0015901600709185004,-0.0004972027381882071,-0.0011978093534708023,-10.395906448364258,0,0,31.122913360595703,1,1,1000,1000
1778515993.38002706,111562857,1,0.001770469476468861,0.0015781568363308907,0.0014793488662689924,-0.002873930148780346,-0.0019752150401473045,-10.399858474731445,0,0,31.122913360595703,1,1,760,800
1778515993.42001104,111602841,0,0.001593778608366847,0.001609393977560103,0.0015382686397060752,-0.0022021313197910786,-0.0004229213227517903,-10.370214462280273,0,0,31.12476348876953,1,1,1000,1000
1778515993.42001104,111602841,1,0.0015570638934150338,0.0013676537200808525,0.0016506626270711422,-0.0009541020262986422,0.0014458968071267009,-10.373947143554688,0,0,31.12476348876953,1,1,760,800
1778515993.45999503,111642825,0,0.00158775900490582,0.0016032459679991007,0.001630662358365953,-0.0012483946047723293,-0.0014391285367310047,-10.348020553588867,0,0,31.12661361694336,1,1,1000,1000
1778515993.45999503,111642825,1,0.0015404513105750084,0.001458336366340518,0.001567161874845624,0.000763816584367305,-0.0004634845827240497,-10.3544921875,0,0,31.126567840576172,1,1,760,800
1778515993.49997926,111682809,0,0.0016244358848780394,0.0015895441174507141,0.0015352286864072084,-0.0011346961837261915,-0.0014142007566988468,-10.342632293701172,0,0,31.128463745117188,1,1,1000,1000
1778515993.49997926,111682809,1,0.0016115359030663967,0.0016778695862740278,0.0016005894867703319,-0.0019656424410641193,-0.00013437004236038774,-10.347330093383789,0,0,31.12841796875,1,1,760,800
1778515993.53996325,111722793,0,0.0016109728021547198,0.0016259142430499196,0.001580934738740325,-0.0006924605695530772,-0.0017366241663694382,-10.343132972717285,0,0,31.130313873291016,1,1,1000,1000
1778515993.53996325,111722793,1,0.0016273101791739464,0.0016822258476167917,0.001516073476523161,-0.002420230535790324,-0.00290120393037796,-10.34695816040039,0,0,31.130268096923828,1,1,760,800
1778515993.57994723,111762777,0,0.0016042814822867513,0.00162804767023772,0.0015320066595450044,-0.00043019585427828133,-0.0021232690196484327,-10.352096557617188,0,0,31.132164001464844,1,1,1000,1000
1778515993.57994723,111762777,1,0.001641198992729187,0.0015812198398634791,0.0016489025438204408,-0.0015125020872801542,-0.0017334220465272665,-10.356698036193848,0,0,31.132118225097656,1,1,760,800
1778515993.61993122,111802761,0,0.0016553776804357767,0.0015962052857503295,0.001576644484885037,-0.0010289103956893086,0.00031707831658422947,-10.3652925491333,0,0,31.134014129638672,1,1,1000,1000
1778515993.61993122,111802761,1,0.0017042160034179688,0.0015420019626617432,0.0017129424959421158,0.001129820360802114,-0.0014561674324795604,-10.372751235961914,0,0,31.13396644592285,1,1,760,800
1778515993.65991521,111842745,0,0.0015892497031018138,0.0015800498658791184,0.001582553843036294,-0.0011883777333423495,-0.000983194331638515,-10.380264282226562,0,0,31.135860443115234,1,1,1000,1000
1778515993.65991521,111842745,1,0.0016916673630475998,0.0014649670338258147,0.0016398269217461348,-0.0015554511919617653,-0.0002533139195293188,-10.383322715759277,0,0,31.135814666748047,1,1,760,800
1778515993.69989920,111882729,0,0.001590143539942801,0.0015836561797186732,0.0015870601637288928,-0.0009938852163031697,-0.0011902984697371721,-10.398853302001953,0,0,31.137710571289062,1,1,1000,1000
1778515993.69989920,111882729,1,0.0016355268890038133,0.0017045210115611553,0.0015955506823956966,-0.0001865499361883849,0.001869856147095561,-10.399404525756836,0,0,31.137662887573242,1,1,760,800
1778515993.73988318,111922713,0,0.0015919958241283894,0.0016091272700577974,0.001626914949156344,0.00019525288371369243,-0.0012074203696101904,-10.413503646850586,0,0,31.139556884765625,1,1,1000,1000
1778515993.73988318,111922713,1,0.00152832071762532,0.001463511260226369,0.0017723877681419253,-0.0021810599137097597,0.001154598779976368,-10.417590141296387,0,0,31.139511108398438,1,1,760,800
1778515993.77986717,111962697,0,0.001623789081349969,0.0015690492000430822,0.0016274559311568737,-0.0011527284514158964,-0.0010194488568231463,-10.428812980651855,0,0,31.14140510559082,1,1,1000,1000
1778515993.77986717,111962697,1,0.0015806079609319568,0.0016207051230594516,0.0014816527254879475,0.001691217184998095,-0.0010306325275450945,-10.431662559509277,0,0,31.141357421875,1,1,760,800
1778515993.81985116,112002681,0,0.001612087362445891,0.001634029089473188,0.0016300377901643515,-0.00019196767243556678,-0.0015936929266899824,-10.44554328918457,0,0,31.143253326416016,1,1,1000,1000
1778515993.81985116,112002681,1,0.0015996892470866442,0.0017329866532236338,0.0014531726483255625,-0.0023034538608044386,-0.001413620775565505,-10.443306922912598,0,0,31.143207550048828,1,1,760,800
1778515993.85983515,112042665,0,-0.024689525365829468,-0.021618738770484924,0.0016740794526413083,-0.001193762756884098,-0.000847790390253067,-12.76622486114502,0,0,31.145099639892578,1,1,1000,1000
1778515993.85983515,112042665,1,-0.024234851822257042,-0.02146502025425434,0.001635752385482192,-0.00016124507237691432,-0.0019516929751262069,-12.70048713684082,0,0,31.14505386352539,1,1,760,800
1778515993.89981914,112082649,0,-0.02657133713364601,-0.026571007445454597,0.001936551765538752,-0.00277955480851233,0.001010211417451501,-15.07626724243164,0,0,31.146947860717773,1,1,1000,1000
1778515993.89981914,112082649,1,-0.02668066881597042,-0.02653929404914379,0.0019127584528177977,-0.004532468505203724,0.0017791826976463199,-15.055103302001953,0,0,31.146902084350586,1,1,760,800
1778515993.93980312,112122633,0,-0.026142297312617302,-0.02594362385571003,0.0019055759767070413,-0.00986194983124733,0.010309416800737381,-14.835331916809082,0,0,31.14879608154297,1,1,1000,1000
1778515993.93980312,112122633,1,-0.026161324232816696,-0.02600310742855072,0.001905477256514132,-0.00913907214999199,0.01038162037730217,-14.835102081298828,0,0,31.14874839782715,1,1,760,800
1778515993.97978711,112162617,0,-0.02504652738571167,-0.023379232734441757,0.00187205639667809,-0.017754845321178436,0.01670151576399803,-13.810674667358398,0,0,31.15064239501953,1,1,1000,1000
1778515993.97978711,112162617,1,-0.025021471083164215,-0.023525018244981766,0.00199569808319211,-0.018017061054706573,0.015595618635416031,-13.817892074584961,0,0,31.15059471130371,1,1,760,800
1778515994.01977110,112202601,0,-0.02146065980195999,-0.019974030554294586,0.0018442103173583746,-0.01977609656751156,0.021074559539556503,-12.588356018066406,0,0,31.152488708496094,1,1,1000,1000
1778515994.01977110,112202601,1,-0.021390516310930252,-0.01994098350405693,0.0018224276136606932,-0.020291395485401154,0.020254280418157578,-12.602912902832031,0,0,31.152441024780273,1,1,760,800
1778515994.05975509,112242585,0,-0.016598032787442207,-0.01588950678706169,0.0018362168921157718,-0.02129232883453369,0.02173137106001377,-11.422640800476074,0,0,31.154333114624023,1,1,1000,1000
1778515994.05975509,112242585,1,-0.016754183918237686,-0.01597733423113823,0.0016239853575825691,-0.022887282073497772,0.022779587656259537,-11.437857627868652,0,0,31.15428924560547,1,1,760,800
1778515994.09973907,112282569,0,-0.009670572355389595,-0.009883133694529533,0.0018403129652142525,-0.017848845571279526,0.016417622566223145,-10.457398414611816,0,0,31.156179428100586,1,1,1000,1000
1778515994.09973907,112282569,1,-0.009715988300740719,-0.009939610958099365,0.002116143237799406,-0.01680547371506691,0.017099404707551003,-10.471341133117676,0,0,31.1561336517334,1,1,760,800
1778515994.13972306,112322553,0,-0.004858883563429117,-0.004487923812121153,0.0017756952438503504,-0.013347973115742207,0.011235428974032402,-9.763218879699707,0,0,31.15802574157715,1,1,1000,1000
1778515994.13972306,112322553,1,-0.005014839582145214,-0.004793573170900345,0.0015458166599273682,-0.012526558712124825,0.011796176433563232,-9.767110824584961,0,0,31.15802574157715,1,1,760,800
1778515994.17970705,112362537,0,0.00014260801253840327,-0.0004535417247097939,0.001810266636312008,-0.00844641961157322,0.005331709980964661,-9.345590591430664,0,0,31.159870147705078,1,1,1000,1000
1778515994.17970705,112362537,1,4.27518280048389e-05,-0.00047462189104408026,0.0018773430492728949,-0.007812793366611004,0.006872111931443214,-9.349396705627441,0,0,31.159870147705078,1,1,760,800
1778515994.21969104,112402521,0,0.0027388199232518673,0.0029056491330266,0.0018247459083795547,-0.0034580889623612165,0.0013369936496019363,-9.18671989440918,0,0,31.16171646118164,1,1,1000,1000
1778515994.21969104,112402521,1,0.0027722720988094807,0.002813023515045643,0.0018558359006419778,-0.008561236783862114,0.001232635579071939,-9.18715763092041,0,0,31.16171646118164,1,1,760,800
1778515994.25967503,112442505,0,0.0072988360188901424,0.006962291896343231,0.0018175344448536634,-0.00044076208723708987,-0.001620276365429163,-9.232048034667969,0,0,31.16356086730957,1,1,1000,1000
1778515994.25967503,112442505,1,0.0073553528636693954,0.006846650969237089,0.0017990052001550794,-0.00027181440964341164,0.001226266729645431,-9.230134010314941,0,0,31.16356086730957,1,1,760,800
1778515994.29965925,112482489,0,0.008920184336602688,0.008338894695043564,0.0018065220210701227,0.0010511277941986918,-0.0029210776556283236,-9.395764350891113,0,0,31.165407180786133,1,1,1000,1000
1778515994.29965925,112482489,1,0.008872615173459053,0.008280634880065918,0.0018962017493322492,0.00023268433869816363,-0.0007980596274137497,-9.391887664794922,0,0,31.165407180786133,1,1,760,800
1778515994.33964324,112522473,0,0.01148806232959032,0.011247316375374794,0.0018030025530606508,-0.0008923676214180887,-0.002474512904882431,-9.649776458740234,0,0,31.167251586914062,1,1,1000,1000
1778515994.33964324,112522473,1,0.011322163045406342,0.0113495709374547,0.0018354409839957952,-0.0018516679992899299,0.002454011235386133,-9.645919799804688,0,0,31.167251586914062,1,1,760,800
1778515994.37962723,112562457,0,0.014185082167387009,0.012918527238070965,0.0017454002518206835,-0.0017402779776602983,-0.00010565572301857173,-9.919991493225098,0,0,31.16909408569336,1,1,1000,1000
1778515994.37962723,112562457,1,0.014172203838825226,0.012927256524562836,0.0017136391252279282,-0.004341648425906897,0.0010599024826660752,-9.91850757598877,0,0,31.16909408569336,1,1,760,800
1778515994.41961122,112602441,0,0.015406368300318718,0.014747791923582554,0.0017791639547795057,-0.002906171604990959,0.000743345357477665,-10.18173885345459,0,0,31.170940399169922,1,1,1000,1000
1778515994.41961122,112602441,1,0.015614506788551807,0.01479201391339302,0.0019205340649932623,-0.0026585422456264496,-0.0006921498570591211,-10.179062843322754,0,0,31.170940399169922,1,1,760,800
1778515994.45959520,112642425,0,0.01629328727722168,0.014418444596230984,0.0017847757553681731,-0.004983098711818457,0.0021122496109455824,-10.399557113647461,0,0,31.17278289794922,1,1,1000,1000
1778515994.45959520,112642425,1,0.016140343621373177,0.014383847825229168,0.0018146239453926682,-0.006741540972143412,0.004217604640871286,-10.39656925201416,0,0,31.17278289794922,1,1,760,800
1778515994.49957919,112682409,0,0.016858277842402458,0.014733441174030304,0.0018286154372617602,-0.005201517604291439,0.004697788506746292,-10.582962036132812,0,0,31.174625396728516,1,1,1000,1000
1778515994.49957919,112682409,1,0.01690986007452011,0.014569822698831558,0.0020735254511237144,-0.0045277634635567665,0.005194203462451696,-10.583991050720215,0,0,31.174625396728516,1,1,760,800
1778515994.53956318,112722393,0,0.019296929240226746,0.015497389249503613,0.001893274369649589,-0.006500995717942715,0.0048361774533987045,-10.692938804626465,0,0,31.176469802856445,1,1,1000,1000
1778515994.53956318,112722393,1,0.01919630542397499,0.015629500150680542,0.0017831508303061128,-0.008052180521190166,0.007450059521943331,-10.690245628356934,0,0,31.176469802856445,1,1,760,800
1778515994.57954717,112762377,0,0.01506077591329813,0.017367437481880188,0.0018429434858262539,-0.008225013501942158,0.0059968698769807816,-10.768838882446289,0,0,31.178312301635742,1,1,1000,1000
1778515994.57954717,112762377,1,0.015002880245447159,0.017408326268196106,0.0018077937420457602,-0.00738499965518713,0.005865585990250111,-10.768804550170898,0,0,31.178312301635742,1,1,760,800
1778515994.61953115,112802361,0,0.015171625651419163,0.013703800737857819,0.0018353149062022567,-0.007199238520115614,0.006489405408501625,-10.814613342285156,0,0,31.18015480041504,1,1,1000,1000
1778515994.61953115,112802361,1,0.015141249634325504,0.013785675168037415,0.0017640680307522416,-0.009708762168884277,0.0063096885569393635,-10.815296173095703,0,0,31.18015480041504,1,1,760,800
1778515994.65951514,112842345,0,0.015022610314190388,0.011509289033710957,0.001818992430344224,-0.009313417598605156,0.007666698656976223,-10.836158752441406,0,0,31.18199920654297,1,1,1000,1000
1778515994.65951514,112842345,1,0.015027363784611225,0.011479523032903671,0.0018764132400974631,-0.009273828938603401,0.006969087291508913,-10.837553977966309,0,0,31.18199920654297,1,1,760,800
1778515994.69949913,112882329,0,0.012479020282626152,0.012164057232439518,0.00187899440061301,-0.009376976639032364,0.0063514094799757,-10.827672958374023,0,0,31.183839797973633,1,1,1000,1000
1778515994.69949913,112882329,1,0.0123446024954319,0.012223390862345695,0.001884921919554472,-0.007811079267412424,0.0078849783167243,-10.827935218811035,0,0,31.183839797973633,1,1,760,800
1778515994.73948312,112922313,0,0.009636837057769299,0.011944575235247612,0.001890402170829475,-0.010144680738449097,0.006857432425022125,-10.814756393432617,0,0,31.18568229675293,1,1,1000,1000
1778515994.73948312,112922313,1,0.009391073137521744,0.011940055526793003,0.0020419955253601074,-0.007559482473880053,0.0062361774034798145,-10.813981056213379,0,0,31.18568229675293,1,1,760,800
1778515994.77946711,112962297,0,0.010722953826189041,0.008790718391537666,0.001873552449978888,-0.008035851642489433,0.006553185172379017,-10.797637939453125,0,0,31.187522888183594,1,1,1000,1000
1778515994.77946711,112962297,1,0.010791229084134102,0.00876919087022543,0.001930674072355032,-0.008913210593163967,0.00975162722170353,-10.79574966430664,0,0,31.187522888183594,1,1,760,800
1778515994.81945109,113002281,0,0.008803301490843296,0.010928601026535034,0.0018327992875128984,-0.009559649042785168,0.006543249357491732,-10.793447494506836,0,0,31.18936538696289,1,1,1000,1000
1778515994.81945109,113002281,1,0.008856404572725296,0.010966407135128975,0.0018321123206987977,-0.008856488391757011,0.008748399093747139,-10.792926788330078,0,0,31.18936538696289,1,1,760,800
1778515994.85943508,113042265,0,0.00915998313575983,0.0063649192452430725,0.001824358245357871,-0.009123302064836025,0.0073008607141673565,-10.788424491882324,0,0,31.191207885742188,1,1,1000,1000
1778515994.85943508,113042265,1,0.009104743599891663,0.006451318971812725,0.0017909270245581865,-0.009706327691674232,0.00430750846862793,-10.786975860595703,0,0,31.191207885742188,1,1,760,800
1778515994.89941907,113082249,0,0.008058196865022182,0.008339336141943932,0.001749789691530168,-0.009479143656790257,0.0072539495304226875,-10.788116455078125,0,0,31.19304656982422,1,1,1000,1000
1778515994.89941907,113082249,1,0.008071464486420155,0.00841651950031519,0.001801760052330792,-0.006681644357740879,0.007531330455094576,-10.787792205810547,0,0,31.19304656982422,1,1,760,800
1778515994.93940306,113122233,0,0.007747135125100613,0.007773100398480892,0.0017160809366032481,-0.009117038920521736,0.005402677226811647,-10.79529094696045,0,0,31.194843292236328,1,1,1000,1000
1778515994.93940306,113122233,1,0.007677014917135239,0.007784864865243435,0.0018081063171848655,-0.00802535004913807,0.008368353359401226,-10.79649829864502,0,0,31.194889068603516,1,1,760,800
1778515994.97938704,113162217,0,0.00859298650175333,0.004395452793687582,0.0017085265135392547,-0.009535637684166431,0.007935352623462677,-10.808467864990234,0,0,31.196683883666992,1,1,1000,1000
1778515994.97938704,113162217,1,0.008644908666610718,0.004398928489536047,0.00164583302102983,-0.008955778554081917,0.008790479972958565,-10.80791187286377,0,0,31.196727752685547,1,1,760,800
1778515995.01937103,113202201,0,0.003919403068721294,0.006427939515560865,0.0017095417715609074,-0.00762621033936739,0.0073080239817500114,-10.815959930419922,0,0,31.198522567749023,1,1,1000,1000
1778515995.01937103,113202201,1,0.0038184658624231815,0.0063491445034742355,0.0015922609018161893,-0.008790675550699234,0.008077689446508884,-10.813458442687988,0,0,31.198570251464844,1,1,760,800
1778515995.05935526,113242185,0,0.007008349522948265,0.006985856220126152,0.0018279374344274402,-0.008259311318397522,0.007558882236480713,-10.831506729125977,0,0,31.200363159179688,1,1,1000,1000
1778515995.05935526,113242185,1,0.007158313412219286,0.0069492897018790245,0.0018405125010758638,-0.007121695205569267,0.006824985146522522,-10.830390930175781,0,0,31.200408935546875,1,1,760,800
1778515995.09933925,113282169,0,0.006574147380888462,0.0041471803560853004,0.0017311439150944352,-0.008110305294394493,0.005587707739323378,-10.84081745147705,0,0,31.20220184326172,1,1,1000,1000
1778515995.09933925,113282169,1,0.006755087524652481,0.004034453071653843,0.001714098616503179,-0.00903686136007309,0.006878899876028299,-10.840993881225586,0,0,31.20224952697754,1,1,760,800
1778515995.13932323,113322153,0,0.007032839581370354,0.004899955354630947,0.0018100737361237407,-0.008733918890357018,0.005998311098664999,-10.842574119567871,0,0,31.204042434692383,1,1,1000,1000
1778515995.13932323,113322153,1,0.007130414247512817,0.004701222293078899,0.0018446823814883828,-0.011531881056725979,0.007941448129713535,-10.842540740966797,0,0,31.204090118408203,1,1,760,800
1778515995.17930722,113362137,0,0.0037402634043246508,0.0015215303283184767,0.0018478931160643697,-0.008214764297008514,0.00630293320864439,-10.85954761505127,0,0,31.205883026123047,1,1,1000,1000
1778515995.17930722,113362137,1,0.003657897002995014,0.0014471113681793213,0.0018429377814754844,-0.006400147452950478,0.00313385296612978,-10.861360549926758,0,0,31.205928802490234,1,1,760,800
1778515995.21929121,113402121,0,0.002341184765100479,0.002642715349793434,0.001923440839163959,-0.0074344538152217865,0.005809638183563948,-10.858449935913086,0,0,31.207721710205078,1,1,1000,1000
1778515995.21929121,113402121,1,0.0022830162197351456,0.0024424903094768524,0.0021029184572398663,-0.006857269909232855,0.0054124039597809315,-10.858308792114258,0,0,31.207767486572266,1,1,760,800
1778515995.25927520,113442105,0,0.0008124500163830817,0.004422712605446577,0.0019264614675194025,-0.006480635609477758,0.00532844802364707,-10.86566162109375,0,0,31.20956039428711,1,1,1000,1000
1778515995.25927520,113442105,1,0.0008412550087086856,0.004343985579907894,0.0019092754228040576,-0.008147964254021645,0.0050474610179662704,-10.864425659179688,0,0,31.209606170654297,1,1,760,800
1778515995.29925919,113482089,0,0.002275662962347269,0.0030888505280017853,0.0019573005847632885,-0.006849920377135277,0.004994213115423918,-10.861998558044434,0,0,31.21139907836914,1,1,1000,1000
1778515995.29925919,113482089,1,0.00225046556442976,0.002763147698715329,0.0019471667474135756,-0.00843064021319151,0.007518209982663393,-10.860511779785156,0,0,31.211444854736328,1,1,760,800
1778515995.33924317,113522073,0,0.0037620491348206997,0.002061664592474699,0.0020378080662339926,-0.006993654649704695,0.005312324035912752,-10.867952346801758,0,0,31.213237762451172,1,1,1000,1000
1778515995.33924317,113522073,1,0.00385841797105968,0.002011433709412813,0.0020912496838718653,-0.007751167751848698,0.007116387598216534,-10.864492416381836,0,0,31.21328353881836,1,1,760,800
1778515995.37922716,113562057,0,0.0018185947556048632,0.002009848365560174,0.0020374797750264406,-0.006532457657158375,0.005115225445479155,-10.856245040893555,0,0,31.215120315551758,1,1,1000,1000
1778515995.37922716,113562057,1,0.0015522012254223228,0.00200065434910357,0.0018499527359381318,-0.007607785984873772,0.005431754048913717,-10.857391357421875,0,0,31.215120315551758,1,1,760,800
1778515995.41921115,113602041,0,0.0016040900954976678,0.0019529782002791762,0.0018617893802002072,-0.006851123180240393,0.004114743787795305,-10.865808486938477,0,0,31.21695899963379,1,1,1000,1000
1778515995.41921115,113602041,1,0.0017652584938332438,0.001958082430064678,0.002038749400526285,-0.008424859493970871,0.004205956123769283,-10.865188598632812,0,0,31.21695899963379,1,1,760,800
1778515995.46002817,113642858,0,0.0014867529971525073,0.001978738233447075,0.0019202942494302988,-0.00729416636750102,0.0040976302698254585,-10.846281051635742,0,0,31.218795776367188,1,1,1000,1000
1778515995.46002817,113642858,1,0.0015162952477112412,0.0019655826035887003,0.0018323473632335663,-0.00537138944491744,0.003555093891918659,-10.846925735473633,0,0,31.218795776367188,1,1,760,800
1778515995.50001216,113682842,0,0.0005299863405525684,-0.00012454419629648328,0.0018874190282076597,-0.005739171989262104,0.003328710561618209,-10.859557151794434,0,0,31.22063446044922,1,1,1000,1000
1778515995.50001216,113682842,1,0.00042051440686918795,-0.00022232036280911416,0.00206349091604352,-0.006895611993968487,0.002478351816534996,-10.860076904296875,0,0,31.22063446044922,1,1,760,800
1778515995.53999615,113722826,0,0.0008508135215379298,0.00023282848997041583,0.0018977387808263302,-0.004949788562953472,0.0046526710502803326,-10.839042663574219,0,0,31.222471237182617,1,1,1000,1000
1778515995.53999615,113722826,1,0.0007658233516849577,0.00015264376997947693,0.0018353727646172047,-0.005353956948965788,0.00271231634542346,-10.839264869689941,0,0,31.22242546081543,1,1,760,800
1778515995.57998013,113762810,0,0.000610229792073369,0.0004190811887383461,0.0019128978019580245,-0.00597534142434597,0.0031746751628816128,-10.805330276489258,0,0,31.224308013916016,1,1,1000,1000
1778515995.57998013,113762810,1,0.0006910714437253773,0.0003547839296516031,0.0020152342040091753,-0.004801100119948387,0.0018609962426126003,-10.805601119995117,0,0,31.224262237548828,1,1,760,800
1778515995.61996412,113802794,0,0.00038196833338588476,0.0005482285632751882,0.00193688552826643,-0.005223378073424101,0.0023665055632591248,-10.698930740356445,0,0,31.226144790649414,1,1,1000,1000
1778515995.61996412,113802794,1,0.00046894708066247404,0.0006048427894711494,0.0019954699091613293,-0.005828912369906902,0.0008039833046495914,-10.69810676574707,0,0,31.226099014282227,1,1,760,800
1778515995.65994811,113842778,0,-0.0007425201474688947,0.0005799056380055845,0.001938106957823038,-0.005001012235879898,0.0028025952633470297,-10.591096878051758,0,0,31.227981567382812,1,1,1000,1000
1778515995.65994811,113842778,1,-0.0008538962574675679,0.000585974776186049,0.002039387123659253,-0.00764563400298357,0.002524435054510832,-10.591100692749023,0,0,31.227933883666992,1,1,760,800
1778515995.69993210,113882762,0,-0.0011763796210289001,0.0009873118251562119,0.0018861128482967615,-0.004548240453004837,0.0025336057879030704,-10.491802215576172,0,0,31.229816436767578,1,1,1000,1000
1778515995.69993210,113882762,1,-0.0010816267458721995,0.0008876565261743963,0.0019107817206531763,-0.004611656069755554,0.002155821304768324,-10.491809844970703,0,0,31.22977066040039,1,1,760,800
1778515995.73991609,113922746,0,-0.0010814593406394124,0.001718990271911025,0.0019108967389911413,-0.003538439515978098,0.0023722213227301836,-10.403833389282227,0,0,31.231651306152344,1,1,1000,1000
1778515995.73991609,113922746,1,-0.001240213168784976,0.0016509295674040914,0.0018988691736012697,-0.005377545487135649,0.002406015060842037,-10.404644012451172,0,0,31.23160743713379,1,1,760,800
1778515995.77990007,113962730,0,-0.0008720596088096499,0.0015824846923351288,0.0018467750633135438,-0.004917934071272612,0.0027071963995695114,-10.320094108581543,0,0,31.233488082885742,1,1,1000,1000
1778515995.77990007,113962730,1,-0.000983121688477695,0.0015240708598867059,0.0019687912426888943,-0.0035714374389499426,0.0036302271764725447,-10.321199417114258,0,0,31.233444213867188,1,1,760,800
1778515995.81988406,114002714,0,-0.001487520756199956,0.0015778362285345793,0.0019199796952307224,-0.004387706518173218,0.0010670358315110207,-10.242918014526367,0,0,31.23532485961914,1,1,1000,1000
1778515995.81988406,114002714,1,-0.0015363807324320078,0.0014584576711058617,0.002042724285274744,-0.004462729208171368,0.003768850350752473,-10.243680953979492,0,0,31.23527717590332,1,1,760,800
1778515995.85986805,114042698,0,-0.001933755469508469,0.001247346168383956,0.0019484104122966528,-0.0037661567330360413,0.00139902182854712,-10.171900749206543,0,0,31.237159729003906,1,1,1000,1000
1778515995.85986805,114042698,1,-0.0018269673455506563,0.00109519821126014,0.0019170136656612158,-0.004620905965566635,0.003142189234495163,-10.174018859863281,0,0,31.23711395263672,1,1,760,800
1778515995.89985204,114082682,0,-0.0010171504691243172,-0.00035938090877607465,0.0020492617040872574,-0.0033822832629084587,0.001173481228761375,-10.112696647644043,0,0,31.238994598388672,1,1,1000,1000
1778515995.89985204,114082682,1,-0.0008357336628250778,-0.0003103563212789595,0.0020518479868769646,-0.005205070599913597,-0.001323557342402637,-10.111791610717773,0,0,31.238948822021484,1,1,760,800
1778515995.93983603,114122666,0,-1.325618359260261e-05,-0.0014226381899788976,0.0021494729444384575,-0.003480158746242523,-0.00019487198733258992,-10.056886672973633,0,0,31.240829467773438,1,1,1000,1000
1778515995.93983603,114122666,1,7.244004518724978e-05,-0.0014216841664165258,0.002160426927730441,-0.003054110798984766,0.002018696628510952,-10.055750846862793,0,0,31.24078369140625,1,1,760,800
1778515995.97982025,114162650,0,-0.0013341123703867197,0.002288630697876215,0.0022107181139290333,-0.0026081176474690437,0.00028111596475355327,-10.006683349609375,0,0,31.242664337158203,1,1,1000,1000
1778515995.97982025,114162650,1,-0.0014403995592147112,0.0023390448186546564,0.002092866227030754,-0.0031385626643896103,0.0006594790029339492,-10.004814147949219,0,0,31.242618560791016,1,1,760,800
1778515996.01980424,114202634,0,0.000665295054204762,-0.00034035195130854845,0.0022855610586702824,-0.0035473385360091925,0.00012002911535091698,-9.962504386901855,0,0,31.244497299194336,1,1,1000,1000
1778515996.01980424,114202634,1,0.0007681193528696895,-0.0004243138828314841,0.0025814566761255264,-0.004062557592988014,0.001525667030364275,-9.963412284851074,0,0,31.24445152282715,1,1,760,800
1778515996.05978823,114242618,0,0.00011563950101844966,-0.001516156131401658,0.0021244145464152098,-0.0026789770927280188,-0.0005346761317923665,-9.92592716217041,0,0,31.24633026123047,1,1,1000,1000
1778515996.05978823,114242618,1,-0.0001686401228653267,-0.001595750916749239,0.0019848495721817017,-0.0025315475650131702,-0.0007714078528806567,-9.924968719482422,0,0,31.24628448486328,1,1,760,800
1778515996.09977221,114282602,0,0.00013395454152487218,0.0013342555612325668,0.001953418832272291,-0.0008903932175599039,-0.0006514850538223982,-9.89340591430664,0,0,31.248165130615234,1,1,1000,1000
1778515996.09977221,114282602,1,6.788552855141461e-05,0.001217709737829864,0.0022116887848824263,-0.002381750615313649,0.00027610317920334637,-9.892791748046875,0,0,31.248119354248047,1,1,760,800
1778515996.13975620,114322586,0,-0.0008493774803355336,-0.001802009530365467,0.0018755560740828514,-0.001967980293557048,-0.0008957303944043815,-9.86302661895752,0,0,31.25,1,1,1000,1000
1778515996.13975620,114322586,1,-0.0008492458146065474,-0.001993870362639427,0.0017117224633693695,-0.0010242883581668139,-0.0006820234120823443,-9.862789154052734,0,0,31.249954223632812,1,1,760,800
1778515996.17974019,114362570,0,0.002534914994612336,0.0025255014188587666,0.0016374585684388876,-0.0022887366358190775,0.0001442850916646421,-9.833304405212402,0,0,31.2518310546875,1,1,1000,1000
1778515996.17974019,114362570,1,0.0025520191993564367,0.0025714579969644547,0.001642430666834116,-0.003441563341766596,0.001220346544869244,-9.830583572387695,0,0,31.251785278320312,1,1,760,800
1778515996.21972418,114402554,0,0.00019661604892462492,0.00015730598533991724,0.0013912541326135397,-0.0029885806143283844,-0.0007094669272191823,-9.808711051940918,0,0,31.253664016723633,1,1,1000,1000
1778515996.21972418,114402554,1,9.477532148594037e-05,0.000276656704954803,0.0013333250535652041,-0.0029771176632493734,0.0014684548368677497,-9.809045791625977,0,0,31.253664016723633,1,1,760,800
1778515996.25970817,114442538,0,-0.0008899869280867279,-0.0013016831362619996,0.0013563360553234816,-0.0024860266130417585,-0.00040599843487143517,-9.792335510253906,0,0,31.255496978759766,1,1,1000,1000
1778515996.25970817,114442538,1,-0.0007390952669084072,-0.0012859564740210772,0.0012444020248949528,-0.0012439311249181628,-0.0023059856612235308,-9.791653633117676,0,0,31.255496978759766,1,1,760,800
1778515996.29969215,114482522,0,0.0010673890355974436,0.0012535643763840199,0.0009002643637359142,-0.001131589524447918,-0.0006787215243093669,-9.77126693725586,0,0,31.2573299407959,1,1,1000,1000
1778515996.29969215,114482522,1,0.001156795071437955,0.0012627728283405304,0.0010798090370371938,-0.0011720757465809584,0.0018547707004472613,-9.768474578857422,0,0,31.2573299407959,1,1,760,800
1778515996.33967614,114522506,0,0.0003600644413381815,4.181039912509732e-05,0.0009477836429141462,-0.002393353497609496,-0.001557623501867056,-9.76343822479248,0,0,31.25916290283203,1,1,1000,1000
1778515996.33967614,114522506,1,0.00043959374306723475,-9.886247426038608e-05,0.0008752052672207355,0.00012278943904675543,-0.0024331053718924522,-9.764694213867188,0,0,31.25916290283203,1,1,760,800
1778515996.37966013,114562490,0,0.001868878840468824,0.002489608246833086,0.0005023994017392397,-0.0017419273499399424,-0.0012759214732795954,-9.744864463806152,0,0,31.26099395751953,1,1,1000,1000
1778515996.37966013,114562490,1,0.0018365569412708282,0.0025668214075267315,0.0006361487321555614,-0.002054360928013921,0.000626835972070694,-9.744695663452148,0,0,31.26099395751953,1,1,760,800
1778515996.41964412,114602474,0,0.0012308732839301229,0.002578980755060911,0.0003948350204154849,-0.002750211860984564,-0.0013363179750740528,-9.739981651306152,0,0,31.26282501220703,1,1,1000,1000
1778515996.41964412,114602474,1,0.001220235018990934,0.002369196154177189,0.000303150387480855,-0.0015541628235951066,-0.0016668892931193113,-9.741536140441895,0,0,31.26282501220703,1,1,760,800
1778515996.45962811,114642458,0,0.001290350453928113,0.001949233002960682,0.0003331360931042582,-0.0010501856449991465,-0.0015267827548086643,-9.73664665222168,0,0,31.264657974243164,1,1,1000,1000
1778515996.45962811,114642458,1,0.0011945654405280948,0.0020462002139538527,0.0003961566835641861,-0.001436459831893444,-0.0005198992439545691,-9.739676475524902,0,0,31.264657974243164,1,1,760,800
1778515996.49961209,114682442,0,0.00025758007541298866,0.0019224537536501884,0.00045829819282516837,-0.001392746577039361,-0.0007810319075360894,-9.734662055969238,0,0,31.266489028930664,1,1,1000,1000
1778515996.49961209,114682442,1,0.00024356780340895057,0.0018963533220812678,0.0003648456186056137,-0.0012558752205222845,-0.0020791864953935146,-9.736627578735352,0,0,31.266489028930664,1,1,760,800
1778515996.53959608,114722426,0,-0.0015250020660459995,0.0019652023911476135,0.00029289390658959746,-0.00023742872872389853,-0.0012786613078787923,-9.732617378234863,0,0,31.268320083618164,1,1,1000,1000
1778515996.53959608,114722426,1,-0.001331103383563459,0.0017958610551431775,0.0004416131996549666,-0.00234991661272943,-0.0002817977510858327,-9.73132038116455,0,0,31.268320083618164,1,1,760,800
1778515996.57958007,114762410,0,-0.0003870208456646651,0.0018458219710737467,-3.197832847945392e-05,-0.0020554864313453436,-0.0005492419004440308,-9.732112884521484,0,0,31.270151138305664,1,1,1000,1000
1778515996.57958007,114762410,1,-0.0003765741130337119,0.0018365534488111734,1.3237512575869914e-05,-0.002789683174341917,0.0006070071249268949,-9.73112964630127,0,0,31.270151138305664,1,1,760,800
1778515996.61956406,114802394,0,0.00022510328562930226,0.0037468886002898216,-0.00031111648422665894,-0.00133937643840909,-0.0008586426265537739,-9.728772163391113,0,0,31.27198028564453,1,1,1000,1000
1778515996.61956406,114802394,1,0.0002618180005811155,0.003806828986853361,-0.00033197348238900304,-0.00038210934144444764,-0.004707592539489269,-9.72696304321289,0,0,31.27198028564453,1,1,760,800
1778515996.65954804,114842378,0,-7.539983926108107e-06,0.003782656043767929,-0.0003776723751798272,-0.0007366760401055217,-0.0013156458735466003,-9.72734260559082,0,0,31.27381134033203,1,1,1000,1000
1778515996.65954804,114842378,1,0.00025851200916804373,0.004116653930395842,-0.0003077673609368503,-0.002552394289523363,-0.0015545653877779841,-9.725387573242188,0,0,31.27381134033203,1,1,760,800
1778515996.69953203,114882362,0,0.0006490516825579107,0.00435949582606554,-0.00035372955608181655,-0.0013161967508494854,-0.0008837946224957705,-9.730833053588867,0,0,31.2756404876709,1,1,1000,1000
1778515996.69953203,114882362,1,0.0008011059835553169,0.004463200457394123,-0.00011271433322690427,-0.0027016927488148212,-0.0015782290138304234,-9.733627319335938,0,0,31.2756404876709,1,1,760,800
1778515996.73951626,114922346,0,0.0023340745829045773,0.005297815892845392,-0.0003412851074244827,-0.0008224195917136967,-0.0020264973863959312,-9.735616683959961,0,0,31.277469635009766,1,1,1000,1000
1778515996.73951626,114922346,1,0.002473012078553438,0.005542784929275513,-0.0002815799380186945,-0.00385153666138649,-0.0020053978078067303,-9.735762596130371,0,0,31.277469635009766,1,1,760,800
1778515996.77950025,114962330,0,0.002480505034327507,0.002872331067919731,-0.0004815211286768317,-0.000534384569618851,-0.0011081962147727609,-9.74317455291748,0,0,31.279300689697266,1,1,1000,1000
1778515996.77950025,114962330,1,0.002373556839302182,0.0029359417967498302,-0.00040835217805579305,-0.002277290914207697,-0.0024105370976030827,-9.743020057678223,0,0,31.279300689697266,1,1,760,800
1778515996.81948423,115002314,0,0.00256931921467185,0.0028387396596372128,-0.0005665593198500574,-0.0017436690395697951,-0.001720567001029849,-9.745339393615723,0,0,31.281129837036133,1,1,1000,1000
1778515996.81948423,115002314,1,0.0024895824026316404,0.002819473622366786,-0.0006356627563945949,-0.00022252371127251536,-0.00018661066133063287,-9.744410514831543,0,0,31.281129837036133,1,1,760,800
1778515996.85946822,115042298,0,0.002338531892746687,0.002657045377418399,-0.0006471432861872017,-0.0009087229846045375,-0.0016682605491951108,-9.74977970123291,0,0,31.282958984375,1,1,1000,1000
1778515996.85946822,115042298,1,0.0021743769757449627,0.0028285104781389236,-0.0006106895161792636,-0.003689801087602973,-0.0017241800669580698,-9.749329566955566,0,0,31.282958984375,1,1,760,800
1778515996.89945221,115082282,0,0.002958365250378847,0.00255007017403841,-0.00046563392970710993,-0.00031928112730383873,-0.003091375110670924,-9.754716873168945,0,0,31.284788131713867,1,1,1000,1000
1778515996.89945221,115082282,1,0.0027941493317484856,0.0026093139313161373,-0.0004189459723420441,-0.0016384983900934458,-1.5961373719619587e-05,-9.752826690673828,0,0,31.284788131713867,1,1,760,800
1778515996.93943620,115122266,0,0.0027484623715281487,0.0024064260069280863,-0.00027580210007727146,-0.0009231535368598998,-0.0003832508227787912,-9.756357192993164,0,0,31.286617279052734,1,1,1000,1000
1778515996.93943620,115122266,1,0.0027410401962697506,0.0026735954452306032,-0.00035517715150490403,0.0011317075695842505,-0.0007940649520605803,-9.755509376525879,0,0,31.286617279052734,1,1,760,800
1778515996.97942019,115162250,0,0.002667894819751382,0.002400596160441637,-0.00012598851753864437,-0.0013009123504161835,-0.001524221384897828,-9.755366325378418,0,0,31.28844451904297,1,1,1000,1000
1778515996.97942019,115162250,1,0.0025743315927684307,0.002499982248991728,-6.632307486142963e-05,0.0004129525332245976,-0.003477958030998707,-9.755000114440918,0,0,31.28844451904297,1,1,760,800
1778515997.01940417,115202234,0,0.002581348642706871,0.003060445422306657,8.81111373018939e-06,-4.6740053221583366e-05,-0.002106462139636278,-9.76016902923584,0,0,31.290271759033203,1,1,1000,1000
1778515997.01940417,115202234,1,0.0026205689646303654,0.0027956815902143717,-7.250552152981982e-05,-0.0014978335238993168,-0.003142612287774682,-9.76046371459961,0,0,31.290271759033203,1,1,760,800
1778515997.05938816,115242218,0,0.003208485199138522,0.002471842337399721,-9.120329923462123e-05,0.00010217168892268091,-0.00027640871121548116,-9.779153823852539,0,0,31.292055130004883,1,1,1000,1000
1778515997.05938816,115242218,1,0.003237118013203144,0.00239674374461174,-8.730452827876434e-05,-0.0009794344659894705,-0.0027360485401004553,-9.779494285583496,0,0,31.29210090637207,1,1,760,800
1778515997.09937215,115282202,0,0.002995091490447521,0.0021001878194510937,-2.6567999157123268e-05,0.0006139451870694757,-0.0018273076275363564,-9.781298637390137,0,0,31.293882369995117,1,1,1000,1000
1778515997.09937215,115282202,1,0.003111190628260374,0.0021788859739899635,5.430912642623298e-05,-0.0003634033491834998,-0.002380810910835862,-9.782180786132812,0,0,31.293928146362305,1,1,760,800
1778515997.13935614,115322186,0,0.0023562232963740826,0.004679845180362463,-6.111715629231185e-05,-0.0010193283669650555,-0.0015891981311142445,-9.78903579711914,0,0,31.29570960998535,1,1,1000,1000
1778515997.13935614,115322186,1,0.0021211826242506504,0.004570517223328352,-4.784261363965925e-06,8.7107160652522e-05,-0.004243332892656326,-9.788846969604492,0,0,31.295757293701172,1,1,760,800
1778515997.17934012,115362170,0,0.004167269915342331,0.004309248179197311,3.222963641746901e-05,0.00012560628238134086,-0.0014725386863574386,-9.795307159423828,0,0,31.297536849975586,1,1,1000,1000
1778515997.17934012,115362170,1,0.004032658878713846,0.004374811425805092,0.00030747512937523425,-0.002262188820168376,-0.0028690951876342297,-9.794721603393555,0,0,31.297582626342773,1,1,760,800
1778515997.21932411,115402154,0,0.003775181481614709,0.004003568552434444,0.0001786183420335874,-0.0007043923251330853,-0.002030404983088374,-9.792840957641602,0,0,31.29936408996582,1,1,1000,1000
1778515997.21932411,115402154,1,0.003712537232786417,0.004124538507312536,2.9295033527887426e-05,-5.363030140870251e-05,-0.0020315356086939573,-9.7937650680542,0,0,31.299409866333008,1,1,760,800
1778515997.25930810,115442138,0,0.003585269208997488,0.0038220002315938473,0.00019627533038146794,-0.0002473565982654691,-0.0010409546084702015,-9.793487548828125,0,0,31.301191329956055,1,1,1000,1000
1778515997.25930810,115442138,1,0.0035244529135525227,0.003600437194108963,0.00030729820718988776,-0.0006018840940669179,-0.003837057389318943,-9.793600082397461,0,0,31.30123519897461,1,1,760,800
1778515997.29929209,115482122,0,0.003368919948115945,0.0015211306745186448,0.00021506252232939005,-0.00015457281551789492,-0.0014140824787318707,-9.802687644958496,0,0,31.303016662597656,1,1,1000,1000
1778515997.29929209,115482122,1,0.0031902757473289967,0.0015559560852125287,0.00014786086103413254,0.0020392213482409716,-0.00039988046046346426,-9.801729202270508,0,0,31.303062438964844,1,1,760,800
1778515997.33927608,115522106,0,0.0031807892955839634,0.00029936397913843393,8.055868420342449e-06,0.0003543559287209064,-0.0008397077908739448,-9.803653717041016,0,0,31.30484390258789,1,1,1000,1000
1778515997.33927608,115522106,1,0.0030514472164213657,0.0001422033819835633,-8.625444752397016e-05,0.0001060020222212188,-0.001488708658143878,-9.802108764648438,0,0,31.304889678955078,1,1,760,800
1778515997.37926006,115562090,0,0.0017701730830594897,-0.0007102855597622693,-0.0003348634054418653,0.001405989401973784,-0.001577399205416441,-9.814720153808594,0,0,31.30666732788086,1,1,1000,1000
1778515997.37926006,115562090,1,0.001538064330816269,-0.0006455729017034173,-0.000450038438430056,0.0002609990769997239,-0.0022292083594948053,-9.813499450683594,0,0,31.30671501159668,1,1,760,800
1778515997.41924405,115602074,0,0.0008173886453732848,0.00280577689409256,-0.00042457092786207795,0.0021728714928030968,-0.0007261487771756947,-9.821014404296875,0,0,31.308494567871094,1,1,1000,1000
1778515997.41924405,115602074,1,0.0009594185394234955,0.002851181896403432,-0.00018219361663796008,-0.0005698641762137413,-0.0015911887167021632,-9.823101997375488,0,0,31.30854034423828,1,1,760,800
1778515997.45922804,115642058,0,-0.00017579075938556343,0.0026134494692087173,-0.000584230525419116,0.0009755211649462581,-0.0021463281009346247,-9.82252311706543,0,0,31.310365676879883,1,1,1000,1000
1778515997.45922804,115642058,1,-7.780678424751386e-05,0.002612124662846327,-0.0005613518296740949,0.0005343218217603862,-0.0006104857893660665,-9.819086074829102,0,0,31.310365676879883,1,1,760,800
1778515997.49921203,115682042,0,2.589646464912221e-05,0.0024842089042067528,-0.0007645257283002138,0.0017436349298804998,-0.0017664432525634766,-9.82106876373291,0,0,31.312191009521484,1,1,1000,1000
1778515997.49921203,115682042,1,4.486038233153522e-05,0.0024192342534661293,-0.0007294241222552955,0.0007074640598148108,-0.001380410511046648,-9.8217191696167,0,0,31.312191009521484,1,1,760,800
1778515997.54002905,115722859,0,0.0018686242401599884,0.0024292818270623684,-0.0008742676000110805,0.0018498384160920978,-0.0011788649717345834,-9.8226318359375,0,0,31.314014434814453,1,1,1000,1000
1778515997.54002905,115722859,1,0.0017387198749929667,0.0024920981377363205,-0.0007813364500179887,0.003601491218432784,-0.0010118819773197174,-9.82275390625,0,0,31.314014434814453,1,1,760,800
1778515997.58001304,115762843,0,0.0033591121900826693,0.0023487447760999203,-0.0009424772579222918,0.0012212939327582717,-0.001650413265451789,-9.82303237915039,0,0,31.315841674804688,1,1,1000,1000
1778515997.58001304,115762843,1,0.003462917869910598,0.002336924197152257,-0.0007635621586814523,0.000986148719675839,-0.00256775738671422,-9.8218355178833,0,0,31.315841674804688,1,1,760,800
1778515997.61999702,115802827,0,0.001348690246231854,0.0022619913797825575,-0.0007293636444956064,0.001808703993447125,-0.0020193946547806263,-9.828145027160645,0,0,31.317665100097656,1,1,1000,1000
1778515997.61999702,115802827,1,0.0012230690335854888,0.002295462880283594,-0.0007212887285277247,0.0022333746310323477,0.002112208865582943,-9.826932907104492,0,0,31.31761932373047,1,1,760,800
1778515997.65998125,115842811,0,0.0014225917402654886,-0.0006514441920444369,-0.00047019001794978976,0.0025287976022809744,-0.0010424023494124413,-9.826992988586426,0,0,31.319488525390625,1,1,1000,1000
1778515997.65998125,115842811,1,0.0014116036472842097,-0.0005599668365903199,-0.0004308141069486737,0.0016403031768277287,-0.0032300082966685295,-9.827073097229004,0,0,31.319442749023438,1,1,760,800
1778515997.69996524,115882795,0,0.0014299895847216249,-0.0002882933185901493,-0.00032201665453612804,0.0020272270776331425,-0.0017305799992755055,-9.827705383300781,0,0,31.321313858032227,1,1,1000,1000
1778515997.69996524,115882795,1,0.0014495629584416747,-0.0003854382084682584,-0.0004040164640173316,0.004257384687662125,-0.0026192832738161087,-9.826807975769043,0,0,31.321266174316406,1,1,760,800
1778515997.73994923,115922779,0,0.0015300237573683262,-6.375767407007515e-05,-0.0001658996188780293,0.0020545185543596745,-0.0020301942713558674,-9.826560020446777,0,0,31.323135375976562,1,1,1000,1000
1778515997.73994923,115922779,1,0.001558498595841229,-5.027671249990817e-06,-0.0001025571400532499,0.0014232464600354433,-0.0037280044052749872,-9.825715065002441,0,0,31.323089599609375,1,1,760,800
1778515997.77993321,115962763,0,0.0014684146735817194,8.592579251853749e-05,3.726961222128011e-05,0.0023047830909490585,-0.0021702107042074203,-9.826911926269531,0,0,31.32495880126953,1,1,1000,1000
1778515997.77993321,115962763,1,0.0013661172706633806,0.0001523095415905118,-5.402978422353044e-05,0.003239764366298914,-0.0027750921435654163,-9.825923919677734,0,0,31.324914932250977,1,1,760,800
1778515997.81991720,116002747,0,0.0015145840588957071,0.00018428813200443983,0.00010420713806524873,0.0011311769485473633,-0.002251303056254983,-9.82715892791748,0,0,31.3267822265625,1,1,1000,1000
1778515997.81991720,116002747,1,0.0015111983520910144,0.00022797616838943213,-3.855414979625493e-05,0.003186441259458661,-0.001973806880414486,-9.82571792602539,0,0,31.326738357543945,1,1,760,800
1778515997.85990119,116042731,0,0.0015394242946058512,0.00040085113141685724,0.00022006519429851323,0.002923539374023676,-0.0015547171933576465,-9.826003074645996,0,0,31.32860565185547,1,1,1000,1000
1778515997.85990119,116042731,1,0.0013321820879355073,0.0003185536479577422,0.0003340353141538799,0.0027925344184041023,-0.0006258157081902027,-9.827241897583008,0,0,31.328561782836914,1,1,760,800
1778515997.89988518,116082715,0,0.004116321913897991,-0.001879473915323615,0.00037174811586737633,0.002583644352853298,-0.0017331675626337528,-9.83184814453125,0,0,31.330429077148438,1,1,1000,1000
1778515997.89988518,116082715,1,0.004296484403312206,-0.0018154680728912354,0.0003026629565283656,0.004348657093942165,-0.0036633412819355726,-9.831317901611328,0,0,31.33038330078125,1,1,760,800
1778515997.93986917,116122699,0,0.00545909721404314,-0.003217417048290372,0.000439576106145978,0.0028062844648957253,-0.00077556207543239,-9.83835220336914,0,0,31.332252502441406,1,1,1000,1000
1778515997.93986917,116122699,1,0.005372605752199888,-0.003254873678088188,0.0005694195860996842,0.004260164685547352,-0.00318959541618824,-9.838578224182129,0,0,31.33220672607422,1,1,760,800
1778515997.97985315,116162683,0,0.0055602481588721275,-0.0029489207081496716,0.0005042343400418758,0.003945081029087305,-0.0023499131202697754,-9.8394136428833,0,0,31.334074020385742,1,1,1000,1000
1778515997.97985315,116162683,1,0.00540561368688941,-0.0029512031469494104,0.0006536476430483162,0.006164351478219032,-0.002612587297335267,-9.837396621704102,0,0,31.334028244018555,1,1,760,800
1778515998.01983714,116202667,0,0.003751219715923071,-0.0013949056155979633,0.000537860207259655,0.0038783636409789324,-0.0030365055426955223,-9.838802337646484,0,0,31.335895538330078,1,1,1000,1000
1778515998.01983714,116202667,1,0.003712113481014967,-0.0014122655848041177,0.0005405047559179366,0.0022057797759771347,-0.002839398104697466,-9.839520454406738,0,0,31.33584976196289,1,1,760,800
1778515998.05982113,116242651,0,0.0029012805316597223,-0.0004215187218505889,0.000499787915032357,0.0038997374940663576,-0.0016431970288977027,-9.838021278381348,0,0,31.337718963623047,1,1,1000,1000
1778515998.05982113,116242651,1,0.002659083344042301,-0.0005185468471609056,0.0005954354419372976,0.002480155322700739,-0.0013289517955854535,-9.835891723632812,0,0,31.33767318725586,1,1,760,800
1778515998.09980512,116282635,0,0.0019772604573518038,0.0007884165970608592,0.0005687132943421602,0.003686913289129734,-0.0024769112933427095,-9.838213920593262,0,0,31.33953857421875,1,1,1000,1000
1778515998.09980512,116282635,1,0.0019380960147827864,0.0008218625443987548,0.00043276106589473784,0.0007542110979557037,-0.0035096637438982725,-9.838956832885742,0,0,31.339492797851562,1,1,760,800
1778515998.13978910,116322619,0,0.0013694477966055274,0.001706432900391519,0.000537392683327198,0.0042399694211781025,-0.0022794068790972233,-9.839523315429688,0,0,31.34136199951172,1,1,1000,1000
1778515998.13978910,116322619,1,0.0013090972788631916,0.001729287439957261,0.0005196164129301906,0.0019798539578914642,-0.001815214054659009,-9.84063720703125,0,0,31.34131622314453,1,1,760,800
1778515998.17977309,116362603,0,0.0004684509476646781,0.0012848193291574717,0.0005166679620742798,0.003445480717346072,-0.00307005038484931,-9.839012145996094,0,0,31.343181610107422,1,1,1000,1000
1778515998.17977309,116362603,1,0.0004624496214091778,0.0010584443807601929,0.0006376871024258435,0.0038951579481363297,-0.002667632419615984,-9.837599754333496,0,0,31.343135833740234,1,1,760,800
1778515998.21975708,116402587,0,-0.00023080501705408096,-6.0632122767856345e-05,0.0004427314270287752,0.004157738294452429,-0.0024149592500180006,-9.837520599365234,0,0,31.345003128051758,1,1,1000,1000
1778515998.21975708,116402587,1,-0.00025101593928411603,-5.9580015658866614e-05,0.0003929373051505536,0.004770273342728615,-0.0041686054319143295,-9.835067749023438,0,0,31.34495735168457,1,1,760,800
1778515998.25974107,116442571,0,0.001076982356607914,-0.0014328139368444681,0.0005256207077763975,0.0050367675721645355,-0.0026876621413975954,-9.836106300354004,0,0,31.34682273864746,1,1,1000,1000
1778515998.25974107,116442571,1,0.0011655929265543818,-0.0016374679980799556,0.0005988770863041282,0.0031092828139662743,-0.0012568484526127577,-9.83531379699707,0,0,31.346778869628906,1,1,760,800
1778515998.29972506,116482555,0,0.0016956207109615207,-0.002507575321942568,0.0004663516883738339,0.003611193969845772,-0.0031162709929049015,-9.835142135620117,0,0,31.348644256591797,1,1,1000,1000
1778515998.29972506,116482555,1,0.0016042581992223859,-0.002442033961415291,0.0006025491748005152,0.005335479974746704,-0.0015940610319375992,-9.836994171142578,0,0,31.348644256591797,1,1,760,800
1778515998.33970904,116522539,0,0.001899390248581767,-0.0023073172196745872,0.00046470080269500613,0.004963943734765053,-0.0022060154005885124,-9.831438064575195,0,0,31.350461959838867,1,1,1000,1000
1778515998.33970904,116522539,1,0.002227987162768841,-0.002166809979826212,0.0004798484151251614,0.003603609511628747,-0.0037986661773175,-9.830938339233398,0,0,31.350461959838867,1,1,760,800
1778515998.37969303,116562523,0,0.0022502061910927296,-0.0030220872722566128,0.00040654209442436695,0.0027483112644404173,-0.0024199215695261955,-9.833104133605957,0,0,31.352283477783203,1,1,1000,1000
1778515998.37969303,116562523,1,0.002016783691942692,-0.003135415492579341,0.00030938873533159494,0.005701425019651651,-0.004650893155485392,-9.834348678588867,0,0,31.352283477783203,1,1,760,800
1778515998.41967726,116602507,0,0.001200999366119504,-0.002811297308653593,0.0002550869539845735,0.004609256982803345,-0.003636319423094392,-9.826443672180176,0,0,31.354103088378906,1,1,1000,1000
1778515998.41967726,116602507,1,0.001110863871872425,-0.0027513615787029266,0.00023239314032252878,0.0037861024029552937,-0.00299871526658535,-9.822639465332031,0,0,31.354103088378906,1,1,760,800
1778515998.45966125,116642491,0,0.0012518748408183455,-0.0028134589083492756,0.00011817408085335046,0.004009887110441923,-0.002760641509667039,-9.824806213378906,0,0,31.35592269897461,1,1,1000,1000
1778515998.45966125,116642491,1,0.0010726441396400332,-0.002678581280633807,0.00020165526075288653,0.004463392309844494,-0.005251837894320488,-9.82834529876709,0,0,31.35592269897461,1,1,760,800
1778515998.49964523,116682475,0,0.001346411183476448,-0.0019031218253076077,-0.00015371586778201163,0.004017438739538193,-0.003781759412959218,-9.826908111572266,0,0,31.357742309570312,1,1,1000,1000
1778515998.49964523,116682475,1,0.0011000073282048106,-0.0018555063288658857,-0.00025707390159368515,0.00662416173145175,-0.00514161167666316,-9.825844764709473,0,0,31.357742309570312,1,1,760,800
1778515998.53962922,116722459,0,0.001343449461273849,-0.00012610905105248094,-0.0003124541835859418,0.004851687233895063,-0.0045632896944880486,-9.82578182220459,0,0,31.35955810546875,1,1,1000,1000
1778515998.53962922,116722459,1,0.001335833454504609,7.203803397715092e-05,-0.0002785333199426532,0.0059012919664382935,-0.0030334321781992912,-9.824701309204102,0,0,31.35955810546875,1,1,760,800
1778515998.57961321,116762443,0,0.0021894630044698715,0.0007994248881004751,-0.00012407221947796643,0.004630051553249359,-0.002641145372763276,-9.830280303955078,0,0,31.361377716064453,1,1,1000,1000
1778515998.57961321,116762443,1,0.0021708845160901546,0.0008545911405235529,-0.0001619553950149566,0.003965736832469702,-0.003568261628970504,-9.830658912658691,0,0,31.361377716064453,1,1,760,800
1778515998.61959720,116802427,0,0.0019404449267312884,-0.0010449120309203863,0.00025525997625663877,0.00493217958137393,-0.003863691119477153,-9.824030876159668,0,0,31.363197326660156,1,1,1000,1000
1778515998.61959720,116802427,1,0.001903755939565599,-0.0012610821286216378,0.0002584187895990908,0.004367494024336338,-0.003466486930847168,-9.823809623718262,0,0,31.363197326660156,1,1,760,800
1778515998.65958118,116842411,0,0.0023356974124908447,-0.00070617173332721,0.0006418173434212804,0.00407004589214921,-0.003718861611559987,-9.822912216186523,0,0,31.365015029907227,1,1,1000,1000
1778515998.65958118,116842411,1,0.002195474226027727,-0.0008187799830920994,0.0007306071929633617,0.005636222194880247,-0.004082014784216881,-9.824113845825195,0,0,31.365015029907227,1,1,760,800
1778515998.69956517,116882395,0,0.0016557542840018868,-0.0004312156233936548,0.0010719564743340015,0.005068435799330473,-0.00477795023471117,-9.821359634399414,0,0,31.366832733154297,1,1,1000,1000
1778515998.69956517,116882395,1,0.0016002267366275191,-0.0005321946227923036,0.0012410783674567938,0.004484611563384533,-0.0034569152630865574,-9.823041915893555,0,0,31.366832733154297,1,1,760,800
1778515998.73954916,116922379,0,0.0010093019809573889,-0.00029120093677192926,0.0013176476350054145,0.004214974120259285,-0.004090018570423126,-9.820009231567383,0,0,31.368650436401367,1,1,1000,1000
1778515998.73954916,116922379,1,0.0010094529716297984,-0.00020700153254438192,0.001338973524980247,0.0056500742211937904,-0.004509521648287773,-9.821563720703125,0,0,31.368650436401367,1,1,760,800
1778515998.77953315,116962363,0,0.00011793118028435856,-4.279128916095942e-05,0.0014310667756944895,0.003758472390472889,-0.0027644867077469826,-9.818405151367188,0,0,31.370468139648438,1,1,1000,1000
1778515998.77953315,116962363,1,0.0001653735525906086,-0.00013426928489934653,0.00120609684381634,0.004844405222684145,-0.0020092898048460484,-9.818363189697266,0,0,31.370468139648438,1,1,760,800
1778515998.81951714,117002347,0,0.0002962535945698619,0.00013055390445515513,0.0014119379920884967,0.004184610676020384,-0.0047925915569067,-9.816771507263184,0,0,31.372283935546875,1,1,1000,1000
1778515998.81951714,117002347,1,0.00029126578010618687,5.24567803950049e-06,0.001351487124338746,0.005316415335983038,-0.0032856189645826817,-9.81718635559082,0,0,31.372283935546875,1,1,760,800
1778515998.85950112,117042331,0,0.0004917094483971596,0.0002757967449724674,0.001413273741491139,0.004189298953860998,-0.003989126533269882,-9.817597389221191,0,0,31.374101638793945,1,1,1000,1000
1778515998.85950112,117042331,1,0.0004740110016427934,1.9246454030508175e-05,0.001450208481401205,0.004057642538100481,-0.004301165230572224,-9.816184043884277,0,0,31.374101638793945,1,1,760,800
1778515998.89948511,117082315,0,0.0005932842032052577,0.00036726187681779265,0.0014427055139094591,0.004006323404610157,-0.004817932844161987,-9.817532539367676,0,0,31.375919342041016,1,1,1000,1000
1778515998.89948511,117082315,1,0.00046171731082722545,0.0004214738146401942,0.0013023515930399299,0.002490950282663107,-0.0034543133806437254,-9.816116333007812,0,0,31.375919342041016,1,1,760,800
1778515998.93946910,117122299,0,0.0006937398575246334,0.0011284035863354802,0.0013966045808047056,0.00426071509718895,-0.004909716546535492,-9.818197250366211,0,0,31.377735137939453,1,1,1000,1000
1778515998.93946910,117122299,1,0.0007946686237119138,0.0012091603130102158,0.0016032274579629302,0.0042939819395542145,-0.00735163688659668,-9.81955623626709,0,0,31.377735137939453,1,1,760,800
1778515998.97945309,117162283,0,0.0007907066610641778,0.0006757580558769405,0.0013687509344890714,0.0041468883864581585,-0.004840127192437649,-9.820575714111328,0,0,31.37955093383789,1,1,1000,1000
1778515998.97945309,117162283,1,0.00090934825129807,0.0008433854673057795,0.0013106410624459386,0.0017765203956514597,-0.003647908102720976,-9.819859504699707,0,0,31.37955093383789,1,1,760,800
1778515999.01943707,117202267,0,0.0009073687251657248,0.0014693145640194416,0.001188002061098814,0.00396514218300581,-0.005482927430421114,-9.819851875305176,0,0,31.381366729736328,1,1,1000,1000
1778515999.01943707,117202267,1,0.0008821306400932372,0.0014282995834946632,0.0011865384876728058,0.005887349136173725,-0.0058519672602415085,-9.819929122924805,0,0,31.381366729736328,1,1,760,800
1778515999.05942106,117242251,0,0.0009623293299227953,0.0006115338765084743,0.0011739324545487761,0.0028275474905967712,-0.0038779769092798233,-9.816442489624023,0,0,31.383182525634766,1,1,1000,1000
1778515999.05942106,117242251,1,0.00101986073423177,0.0007856415468268096,0.0011907637817785144,0.0026150853373110294,-0.0040745725855231285,-9.817673683166504,0,0,31.383182525634766,1,1,760,800
1778515999.09940505,117282235,0,0.0010313490638509393,0.0010947550181299448,0.001185595989227295,0.004393984563648701,-0.00448987539857626,-9.74040412902832,0,0,31.384998321533203,1,1,1000,1000
1778515999.09940505,117282235,1,0.0009735175408422947,0.0009572574053891003,0.0011081014527007937,0.0019999858923256397,-0.005653014872223139,-9.739705085754395,0,0,31.384998321533203,1,1,760,800
1778515999.13938904,117322219,0,0.0011821510270237923,0.0008550172788091004,0.0010165928397327662,0.003034846391528845,-0.0043229833245277405,-9.63325309753418,0,0,31.386768341064453,1,1,1000,1000
1778515999.13938904,117322219,1,0.0010398098966106772,0.0007529418217018247,0.0009654127061367035,0.002525273710489273,-0.0024243867956101894,-9.633255004882812,0,0,31.38681411743164,1,1,760,800
1778515999.17937303,117362203,0,0.0017220256850123405,0.0018752714386209846,0.0009147405507974327,0.00336071802303195,-0.004844251088798046,-9.533279418945312,0,0,31.38858413696289,1,1,1000,1000
1778515999.17937303,117362203,1,0.0017268263036385179,0.0018764034612104297,0.0008710713009350002,0.003259069984778762,-0.004454426001757383,-9.531174659729004,0,0,31.388628005981445,1,1,760,800
1778515999.21935725,117402187,0,0.0006220982177183032,0.0006157094612717628,0.0008385779219679534,0.0016424036584794521,-0.004321320913732052,-9.439424514770508,0,0,31.390398025512695,1,1,1000,1000
1778515999.21935725,117402187,1,0.0004575246712192893,0.0003219539357814938,0.0009205437963828444,0.0032516270875930786,-0.0030701442155987024,-9.442584037780762,0,0,31.39044189453125,1,1,760,800
1778515999.25934124,117442171,0,0.0012723151594400406,0.0010593465995043516,0.0007576725329272449,0.003195660188794136,-0.0051732417196035385,-9.350759506225586,0,0,31.3922119140625,1,1,1000,1000
1778515999.25934124,117442171,1,0.0012696206104010344,0.0010516103357076645,0.0008649848750792444,0.004880801774561405,-0.0042243716306984425,-9.35066032409668,0,0,31.392257690429688,1,1,760,800
1778515999.29932523,117482155,0,0.0012419280828908086,0.0011129145277664065,0.000745012890547514,0.0024271192960441113,-0.004303832538425922,-9.271737098693848,0,0,31.394025802612305,1,1,1000,1000
