timestamp,TimeUS,I,GyrX,GyrY,GyrZ,AccX,AccY,AccZ,EG,EA,T,GH,AH,GHz,AHz,TimeSec,AttackActive_IMU,GyrZ_attacked
1778627314.4,54605649,0,0.0007621713448315,0.0007464044028893,0.0008045530994422,-0.0016368229407817,-0.0009166816598735,-9.817384719848633,0,0,28.221546173095703,1,1,1000,1000,0.0,0,0.0008045530994422
1778627314.4,54605649,1,0.0008958132239058,0.0009595470037311,0.0008400095975957,-0.0009316150681115,0.0001748023787513,-9.818760871887209,0,0,28.221546173095703,1,1,760,800,0.0,0,0.0008400095975957
1778627314.439984,54645633,0,0.0007561526726931,0.000727906008251,0.0006991310510784,-0.0010391267715021,-0.0001624229334993,-9.817513465881348,0,0,28.223783493041992,1,1,1000,1000,0.039984,0,0.0006991310510784
1778627314.439984,54645633,1,0.0008820737130008,0.000674074573908,0.0008326278766617,-0.0027284412644803,0.0003767177986446,-9.817137718200684,0,0,28.223783493041992,1,1,760,800,0.039984,0,0.0008326278766617
1778627314.479968,54685617,0,0.0007664449512958,0.0008223361801356,0.0007152702892199,-0.0012908626813441,-0.0011661614989861,-9.818693161010742,0,0,28.22601890563965,1,1,1000,1000,0.079968,0,0.0007152702892199
1778627314.479968,54685617,1,0.0008552761864848,0.0009141573682427,0.0008636125712655,-0.0003466502821538,-0.0012247862759977,-9.81658172607422,0,0,28.22601890563965,1,1,760,800,0.079968,0,0.0008636125712655
1778627314.519952,54725601,0,0.0007407722878269,0.0007561487145721,0.0006874857353977,-0.0002592925739008,-0.001295965979807,-9.817179679870604,0,0,28.228256225585938,1,1,1000,1000,0.119952,0,0.0006874857353977
1778627314.519952,54725601,1,0.0007429469842463,0.0008596171392127,0.0007406161166727,0.0002597603597678,-0.0003483250620774,-9.81707000732422,0,0,28.228256225585938,1,1,760,800,0.119952,0,0.0007406161166727
1778627314.559936,54765585,0,0.0006930320523679,0.0008019024389795,0.0007390644168481,-0.0002283317298861,-0.0001271478977287,-9.81558609008789,0,0,28.230491638183597,1,1,1000,1000,0.159936,0,0.0007390644168481
1778627314.559936,54765585,1,0.0007861219346523,0.0006291283643804,0.0008280631154775,-0.0021873374935239,-0.0007236102828755,-9.81782341003418,0,0,28.230491638183597,1,1,760,800,0.159936,0,0.0008280631154775
1778627314.59992,54805569,0,0.0007153604528866,0.0006910663796588,0.0008845624397508,-0.0011454437626525,-0.0024789609014987,-9.817925453186035,0,0,28.23272705078125,1,1,1000,1000,0.19992,0,0.0008845624397508
1778627314.59992,54805569,1,0.0005420793895609,0.0005514329532161,0.0009412296931259,0.000361760467058,-0.0025070796255022,-9.817121505737305,0,0,28.23272705078125,1,1,760,800,0.19992,0,0.0009412296931259
1778627314.639904,54845553,0,0.0007534229662269,0.0007936532492749,0.0008263419149443,-0.0012447668705135,-0.0016474908916279,-9.81739616394043,0,0,28.234962463378903,1,1,1000,1000,0.239904,0,0.0008263419149443
1778627314.639904,54845553,1,0.0006995175499469,0.0009388071484863,0.000742194650229,-0.0016684879083186,-0.0015766377327963,-9.81494140625,0,0,28.234962463378903,1,1,760,800,0.239904,0,0.000742194650229
1778627314.679888,54885537,0,0.0007886161911301,0.0008177086128853,0.0006787759484723,-0.0010044258087873,-0.0006870939978398,-9.81670379638672,0,0,28.23719787597656,1,1,1000,1000,0.279888,0,0.0006787759484723
1778627314.679888,54885537,1,0.0007764011970721,0.0008013120968826,0.0007765075424686,-0.002396211028099,-0.0002747719408944,-9.818931579589844,0,0,28.23719787597656,1,1,760,800,0.279888,0,0.0007765075424686
1778627314.719872,54925521,0,0.0008129019406624,0.0006770651089027,0.0007757026469334,-0.0006827113684266,-0.0011298712342977,-9.81682586669922,0,0,28.23943328857422,1,1,1000,1000,0.319872,0,0.0007757026469334
1778627314.719872,54925521,1,0.000803587725386,0.0008541657589375,0.0008136369287967,-0.0019162993412464,-0.0013126629637554,-9.816179275512695,0,0,28.23943328857422,1,1,760,800,0.319872,0,0.0008136369287967
1778627314.759856,54965505,0,0.0008990227943286,0.0007444192888215,0.0007986003765836,-0.0001883615477709,1.174160024675075e-05,-9.816993713378906,0,0,28.241668701171875,1,1,1000,1000,0.359856,0,0.0007986003765836
1778627314.759856,54965505,1,0.0007339140865951,0.0007266237516887,0.0005607597413472,-0.0010800289455801,-4.227029785397463e-05,-9.819928169250488,0,0,28.241668701171875,1,1,760,800,0.359856,0,0.0005607597413472
1778627314.7998402,55005489,0,0.0006827876786701,0.0007192873745225,0.0007832128321751,-0.0011262603802606,0.0002198323491029,-9.816884994506836,0,0,28.2439022064209,1,1,1000,1000,0.39984,0,0.0007832128321751
1778627314.7998402,55005489,1,0.0006845822790637,0.000732391141355,0.0005813178722746,-0.0009831173811107,-0.0018446303438395,-9.819158554077148,0,0,28.2439022064209,1,1,760,800,0.39984,0,0.0005813178722746
1778627314.8398242,55045473,0,0.000840654829517,0.0008060145773924,0.0007205670699477,-0.0007335685077123,-0.0005874970811419,-9.817597389221191,0,0,28.24613571166992,1,1,1000,1000,0.439824,0,0.0007205670699477
1778627314.8398242,55045473,1,0.0007959227077662,0.0007155067287385,0.0010662885615602,-0.0022626733407378,-0.0003039485309273,-9.817903518676758,0,0,28.24608039855957,1,1,760,800,0.439824,0,0.0010662885615602
1778627314.879808,55085457,0,0.0007695298991166,0.000753779313527,0.0006882324232719,-0.0008345888345502,-0.0007961556548252,-9.818022727966309,0,0,28.248369216918945,1,1,1000,1000,0.479808,0,0.0006882324232719
1778627314.879808,55085457,1,0.0006774699431844,0.0007478928309865,0.0009334998321719,0.001132130739279,-0.0009668067796155,-9.81611156463623,0,0,28.248313903808597,1,1,760,800,0.479808,0,0.0009334998321719
1778627314.919792,55125441,0,0.0007300854776985,0.0007559378282167,0.000849045231007,-0.0011473872000351,-0.0014520179247483,-9.81739616394043,0,0,28.25060272216797,1,1,1000,1000,0.519792,0,0.000849045231007
1778627314.919792,55125441,1,0.0008574410458095,0.0007349798106588,0.0006661632214672,-0.0006853964296169,-0.0030714848544448,-9.81692886352539,0,0,28.250545501708984,1,1,760,800,0.519792,0,0.0006661632214672
1778627314.959776,55165425,0,0.0007691886858083,0.0007660385454073,0.0007837377488613,-0.0011790374992415,-0.0010930560529232,-9.81696891784668,0,0,28.252836227416992,1,1,1000,1000,0.559776,0,0.0007837377488613
1778627314.959776,55165425,1,0.0004507210105657,0.000883791304659,0.0007963625248521,0.0002020408574026,0.0009919379372149,-9.817506790161133,0,0,28.25278091430664,1,1,760,800,0.559776,0,0.0007963625248521
1778627314.99976,55205409,0,0.0008044833084568,0.0007394371205009,0.0007224658038467,-0.0013886267552152,-0.0002950135676655,-9.817049026489258,0,0,28.255069732666016,1,1,1000,1000,0.59976,0,0.0007224658038467
1778627314.99976,55205409,1,0.0007228977628983,0.0006342391134239,0.0012476342963054,-0.0004229747573845,-0.0013702693395316,-9.816826820373535,0,0,28.25501251220703,1,1,760,800,0.59976,0,0.0012476342963054
1778627315.039744,55245393,0,0.0008225730853155,0.0007968040299601,0.0007218778482638,-0.0012520235031843,-0.0011368263512849,-9.81627082824707,0,0,28.257301330566406,1,1,1000,1000,0.639744,0,0.0007218778482638
1778627315.039744,55245393,1,0.0006742811528965,0.0007631613407284,0.0008777729817666,-0.0017503303242847,0.0003461654414422,-9.818918228149414,0,0,28.257244110107425,1,1,760,800,0.639744,0,0.0008777729817666
1778627315.079728,55285377,0,0.0007352795801125,0.0007280583376996,0.000771865597926,-0.0012601127382367,-0.0012956229038536,-9.817628860473633,0,0,28.2595329284668,1,1,1000,1000,0.679728,0,0.000771865597926
1778627315.079728,55285377,1,0.0010089605348184,0.0008200402371585,0.0006857240223325,-0.0017207950586453,-0.0018676946638152,-9.81685733795166,0,0,28.259477615356445,1,1,760,800,0.679728,0,0.0006857240223325
1778627315.119712,55325361,0,0.0008501361589878,0.0007300493889488,0.0008260930771939,-0.0018880835268646,-0.0011550248600542,-9.817134857177734,0,0,28.261764526367188,1,1,1000,1000,0.719712,0,0.0008260930771939
1778627315.119712,55325361,1,0.0006188974366523,0.0008078443352133,0.0006746960571035,-0.0003361286362633,-0.0005264222854748,-9.81771183013916,0,0,28.26170921325684,1,1,760,800,0.719712,0,0.0006746960571035
1778627315.159696,55365345,0,0.0007503015222027,0.0007119330111891,0.0008299692999571,-0.0009959393646568,-0.0012627015821635,-9.818302154541016,0,0,28.263996124267575,1,1,1000,1000,0.759696,0,0.0008299692999571
1778627315.159696,55365345,1,0.0006811522180214,0.0008807266131043,0.0007240670965984,-0.0006831286591477,-0.0009542850311845,-9.819029808044434,0,0,28.263940811157227,1,1,760,800,0.759696,0,0.0007240670965984
1778627315.19968,55405329,0,0.0008337479666806,0.0008595556719228,0.0008617039420641,-0.0011611054651439,-0.0012651954311877,-9.817551612854004,0,0,28.26622772216797,1,1,1000,1000,0.79968,0,0.0008617039420641
1778627315.19968,55405329,1,0.000849595235195,0.0008210478699766,0.0007889490807428,-0.0019029274117201,-0.0018040461000055,-9.819618225097656,0,0,28.266172409057617,1,1,760,800,0.79968,0,0.0007889490807428
1778627315.239664,55445313,0,0.0007554235053248,0.0006682507228106,0.0008133045630529,-0.0008544540032744,-0.0018993316916748,-9.818082809448242,0,0,28.26845932006836,1,1,1000,1000,0.839664,0,0.0008133045630529
1778627315.239664,55445313,1,0.0006806541932746,0.000945778330788,0.0009239466162398,-0.0014226110652089,-0.0007379101589322,-9.81686782836914,0,0,28.268404006958008,1,1,760,800,0.839664,0,0.0009239466162398
1778627315.279648,55485297,0,0.0008585394825786,0.000822385889478,0.0007570573943667,-0.0003876221599057,-0.0004014680162072,-9.81694793701172,0,0,28.27069091796875,1,1,1000,1000,0.879648,0,0.0007570573943667
1778627315.279648,55485297,1,0.0006606150418519,0.0007340803858824,0.0010811031097546,-0.0009992005070671,0.0005109884077683,-9.817840576171877,0,0,28.27063369750977,1,1,760,800,0.879648,0,0.0010811031097546
1778627315.319632,55525281,0,0.0007598584634251,0.0007516122423112,0.0008083565044216,-0.001532670110464,-0.0018278055358678,-9.816536903381348,0,0,28.272920608520508,1,1,1000,1000,0.919632,0,0.0008083565044216
1778627315.319632,55525281,1,0.0006131249829195,0.0008230023668147,0.0009821063140407,-0.0006799719412811,0.0012055062688887,-9.817479133605955,0,0,28.27286529541016,1,1,760,800,0.919632,0,0.0009821063140407
1778627315.359616,55565265,0,0.000821518828161,0.0007575367344543,0.0008125199819914,-0.0003249374858569,-0.0003143345820717,-9.817187309265137,0,0,28.275150299072266,1,1,1000,1000,0.959616,0,0.0008125199819914
1778627315.359616,55565265,1,0.0008192224777303,0.0006017057457938,0.0007934761233627,-0.0003323841374367,-0.0010494370944797,-9.818464279174805,0,0,28.275094985961918,1,1,760,800,0.959616,0,0.0007934761233627
1778627315.3996,55605249,0,0.0008295072475448,0.0007525345426984,0.0007671806961297,-0.0010728677734732,-0.0006493480177596,-9.816607475280762,0,0,28.277379989624023,1,1,1000,1000,0.9996,0,0.0007671806961297
1778627315.3996,55605249,1,0.0007348068756982,0.0005489219911396,0.000603453896474,-0.0015339023666456,-0.0013170248130336,-9.815590858459473,0,0,28.277324676513672,1,1,760,800,0.9996,0,0.000603453896474
1778627315.439584,55645233,0,0.0008408575667999,0.0007362935575656,0.0007771480595692,-0.0006881947047077,-6.638457125518471e-05,-9.817255973815918,0,0,28.27955436706543,1,1,1000,1000,1.039584,0,0.0007771480595692
1778627315.439584,55645233,1,0.0008129321504384,0.0007397112203761,0.0007576391799375,-0.0036212445702403,-0.0003167740651406,-9.815861701965332,0,0,28.27955436706543,1,1,760,800,1.039584,0,0.0007576391799375
1778627315.479568,55685217,0,0.0008316278690472,0.000820112763904,0.0007777594728395,-0.0013630371540784,-0.0007908948464319,-9.818620681762695,0,0,28.281784057617188,1,1,1000,1000,1.079568,0,0.0007777594728395
1778627315.479568,55685217,1,0.0009247081470675,0.0007118677021935,0.0006614649901166,-0.0040473169647157,-0.0007596029900014,-9.817474365234377,0,0,28.281784057617188,1,1,760,800,1.079568,0,0.0006614649901166
1778627315.519552,55725201,0,0.0007033492438495,0.0007402357296086,0.0007559272344224,-0.001134020043537,-0.0009791671764105,-9.816900253295898,0,0,28.284011840820312,1,1,1000,1000,1.119552,0,0.0007559272344224
1778627315.519552,55725201,1,0.0007559140212833,0.0005467747687362,0.001013959525153,-0.0003780197876039,-0.0011453565675765,-9.817718505859377,0,0,28.284011840820312,1,1,760,800,1.119552,0,0.001013959525153
1778627315.5595362,55765185,0,0.0007782458560541,0.0007646807353012,0.0007248091278597,-0.0010546484263613,9.816682722885162e-05,-9.818553924560549,0,0,28.28624153137207,1,1,1000,1000,1.159536,0,0.0007248091278597
1778627315.5595362,55765185,1,0.0005123392911627,0.0008761105127632,0.0008283151546493,-0.0007143710972741,-0.0002382278034929,-9.817438125610352,0,0,28.28624153137207,1,1,760,800,1.159536,0,0.0008283151546493
1778627315.5995202,55805169,0,0.0008640549494884,0.0007204811554402,0.0008168189087882,-0.0005189914954826,-0.0007203215500339,-9.817261695861816,0,0,28.288469314575195,1,1,1000,1000,1.19952,0,0.0008168189087882
1778627315.5995202,55805169,1,0.0007898005424067,0.0009759542299434,0.0008620892185717,-0.0015393092762678,-0.0006501243333332,-9.818567276000977,0,0,28.288469314575195,1,1,760,800,1.19952,0,0.0008620892185717
1778627315.639504,55845153,0,0.0007908078841865,0.0008383811218664,0.0007900767377577,-0.0001631403720239,-0.0013067828258499,-9.817397117614746,0,0,28.29069709777832,1,1,1000,1000,1.239504,0,0.0007900767377577
1778627315.639504,55845153,1,0.0005474758800119,0.0009305931162089,0.0009217364131473,-0.0028714188374578,-0.0008077670354396,-9.819730758666992,0,0,28.29069709777832,1,1,760,800,1.239504,0,0.0009217364131473
1778627315.679488,55885137,0,0.0007866399828344,0.0008805120596662,0.0007482297951355,-0.0002562698500696,-0.0008214158006012,-9.817089080810549,0,0,28.292924880981445,1,1,1000,1000,1.279488,0,0.0007482297951355
1778627315.679488,55885137,1,0.0004295482940506,0.0007633392815478,0.0007912688888609,0.0007205606088973,-0.0010634530335664,-9.817254066467283,0,0,28.292924880981445,1,1,760,800,1.279488,0,0.0007912688888609
1778627315.719472,55925121,0,0.0008002697722986,0.0007876998279243,0.0008129109046421,-0.001046291552484,-0.001255111536011,-9.81760311126709,0,0,28.29515266418457,1,1,1000,1000,1.319472,0,0.0008129109046421
1778627315.719472,55925121,1,0.0007783034816384,0.0005998880369588,0.0005510097835212,0.0006539380992762,7.481287320842966e-05,-9.817501068115234,0,0,28.29515266418457,1,1,760,800,1.319472,0,0.0005510097835212
1778627315.759456,55965105,0,0.000810200930573,0.0007299571880139,0.0007504165405407,-0.0006975656142458,-0.0003477835271041,-9.817367553710938,0,0,28.29738044738769,1,1,1000,1000,1.359456,0,0.0007504165405407
1778627315.759456,55965105,1,0.0009222312364727,0.0008494950598105,0.0007403747877106,0.0003494419797789,-0.0023492574691772,-9.817405700683594,0,0,28.29738044738769,1,1,760,800,1.359456,0,0.0007403747877106
1778627315.79944,56005089,0,0.0007608797168359,0.0008104942389763,0.0007463631918653,-0.0014975832309573,-0.0013909402769058,-9.817874908447266,0,0,28.299606323242188,1,1,1000,1000,1.39944,0,0.0007463631918653
1778627315.79944,56005089,1,0.0010641202097758,0.0009603957878425,0.000819447916001,-0.0024543446488678,0.000420436321292,-9.817586898803713,0,0,28.299606323242188,1,1,760,800,1.39944,0,0.000819447916001
1778627315.839424,56045073,0,0.0007554809562861,0.0007498688064515,0.0008105122833512,-0.0020620911382138,-0.0014708150411024,-9.818971633911133,0,0,28.30183219909668,1,1,1000,1000,1.439424,0,0.0008105122833512
1778627315.839424,56045073,1,0.00075283809565,0.0006510952953249,0.0006034468533471,0.0004340076702646,0.0001714063982944,-9.818034172058104,0,0,28.30183219909668,1,1,760,800,1.439424,0,0.0006034468533471
1778627315.879408,56085057,0,0.0007428668322972,0.0007997465436346,0.0007683078292757,-0.0012505876366049,-0.0010064960224553,-9.817567825317385,0,0,28.30411529541016,1,1,1000,1000,1.479408,0,0.0007683078292757
1778627315.879408,56085057,1,0.0006801086710765,0.0008902609115466,0.0008295557345263,-0.0028789611533284,-0.0010119283106178,-9.817675590515137,0,0,28.30411529541016,1,1,760,800,1.479408,0,0.0008295557345263
1778627315.919392,56125041,0,0.0007921872311271,0.0007549361907877,0.0007528943242505,-0.0002933717623818,-0.0017191777005791,-9.816673278808594,0,0,28.30634117126465,1,1,1000,1000,1.519392,0,0.0007528943242505
1778627315.919392,56125041,1,0.0009464696631766,0.0006676776101812,0.0009333885391242,0.0001826154039008,0.000734303612262,-9.817724227905272,0,0,28.30634117126465,1,1,760,800,1.519392,0,0.0009333885391242
1778627315.959376,56165025,0,0.0007392109837383,0.0007589075248688,0.0008059670799411,-0.0016841382021084,-0.0002934160875156,-9.817112922668455,0,0,28.30856704711914,1,1,1000,1000,1.559376,0,0.0008059670799411
1778627315.959376,56165025,1,0.0008802617667242,0.0007563139079138,0.000600931525696,-0.0013500176137313,-0.0043393303640186,-9.818450927734377,0,0,28.30856704711914,1,1,760,800,1.559376,0,0.000600931525696
1778627315.99936,56205009,0,0.0007178515661507,0.0007171905017457,0.0007422663038596,-0.0008422478567808,-0.0016265751328319,-9.817341804504396,0,0,28.310792922973636,1,1,1000,1000,1.59936,0,0.0007422663038596
1778627315.99936,56205009,1,0.0007657759124413,0.0004580270906444,0.0006889840587973,-0.0018741794629022,-0.0002980750577989,-9.818016052246094,0,0,28.310792922973636,1,1,760,800,1.59936,0,0.0006889840587973
1778627316.039344,56244993,0,0.0008123654406517,0.0007801625179126,0.0008526393794454,-0.0008693650597706,-0.0002865181595552,-9.816572189331056,0,0,28.31296157836914,1,1,1000,1000,1.639344,0,0.0008526393794454
1778627316.039344,56244993,1,0.0007416098378598,0.0009887218475341,0.0006176343304105,-0.000894108088687,-0.0010441303020343,-9.81577491760254,0,0,28.31296157836914,1,1,760,800,1.639344,0,0.0006176343304105
1778627316.079328,56284977,0,0.0007960405200719,0.0008837785571813,0.0007838208111934,-0.0019025157671421,-0.0025472366251051,-9.81704807281494,0,0,28.315185546875,1,1,1000,1000,1.679328,0,0.0007838208111934
1778627316.079328,56284977,1,0.0007527606212534,0.0009799185208976,0.0007670982740819,0.0002010111347772,-0.0004773265973199,-9.820225715637209,0,0,28.315185546875,1,1,760,800,1.679328,0,0.0007670982740819
1778627316.119312,56324961,0,0.0007212396012619,0.0008077496895566,0.0008020267705433,-0.0012947716750204,-0.0009235187317244,-9.817919731140137,0,0,28.31741142272949,1,1,1000,1000,1.719312,0,0.0008020267705433
1778627316.119312,56324961,1,0.0009323899867013,0.0007746084593236,0.0008178191492334,-9.671006409917028e-05,-0.0017563386354595,-9.814857482910156,0,0,28.31741142272949,1,1,760,800,1.719312,0,0.0008178191492334
1778627316.159296,56364945,0,0.0009130220860242,0.000795254309196,0.0007963784155435,-0.0018813107162714,-0.0002068096073344,-9.818341255187988,0,0,28.31963539123535,1,1,1000,1000,1.759296,0,0.0007963784155435
1778627316.159296,56364945,1,0.0007348651415668,0.0008795470930635,0.000866419984959,0.0002221380127593,0.0005302096251398,-9.818643569946287,0,0,28.31963539123535,1,1,760,800,1.759296,0,0.000866419984959
1778627316.19928,56404929,0,0.0007648401078768,0.0008383094682358,0.0008339760242961,-0.0015963353216648,-0.0015286107081919,-9.816078186035156,0,0,28.32185935974121,1,1,1000,1000,1.79928,0,0.0008339760242961
1778627316.19928,56404929,1,0.0006427323096431,0.000691479537636,0.0007158747757785,-0.0001889941631816,-0.0011525190202519,-9.817102432250977,0,0,28.32185935974121,1,1,760,800,1.79928,0,0.0007158747757785
1778627316.239264,56444913,0,0.0007968212594278,0.0007494146702811,0.0007561921956948,-0.0005097172688692,-0.0015507282223552,-9.818428993225098,0,0,28.32408332824707,1,1,1000,1000,1.839264,0,0.0007561921956948
1778627316.239264,56444913,1,0.0007991313468664,0.0008325579110532,0.0006737782387062,0.0009207899565808,-0.0008467561565339,-9.814793586730955,0,0,28.32408332824707,1,1,760,800,1.839264,0,0.0006737782387062
1778627316.279248,56484897,0,0.0007463775109499,0.0007333756657317,0.0008342913351953,-0.0011053275084123,-0.0013366756029427,-9.816429138183594,0,0,28.326305389404297,1,1,1000,1000,1.879248,0,0.0008342913351953
1778627316.279248,56484897,1,0.000864710076712,0.000983104808256,0.0007481745560653,-0.0001112594109144,-0.001991220517084,-9.816715240478516,0,0,28.326305389404297,1,1,760,800,1.879248,0,0.0007481745560653
1778627316.319232,56524881,0,0.0008568154880777,0.0008935084915719,0.0007538839709013,-0.0020737661980092,-0.0002025848370976,-9.816635131835938,0,0,28.32852935791016,1,1,1000,1000,1.919232,0,0.0007538839709013
1778627316.319232,56524881,1,0.0006142867496237,0.0008905724971555,0.0010264137526974,-0.0008313682628795,-0.0019146262202411,-9.818211555480955,0,0,28.32852935791016,1,1,760,800,1.919232,0,0.0010264137526974
1778627316.3592162,56564865,0,0.0007687608012929,0.0008032355690374,0.0008491993648931,-0.0008887880831025,-0.0005922095733694,-9.81740379333496,0,0,28.330751419067383,1,1,1000,1000,1.959216,0,0.0008491993648931
1778627316.3592162,56564865,1,0.0006423494196496,0.0008148188935592,0.0007578613003715,-0.0004180840041954,-0.0005449017044156,-9.81537914276123,0,0,28.330751419067383,1,1,760,800,1.959216,0,0.0007578613003715
1778627316.3992002,56604849,0,0.0008480669930577,0.0008174524991773,0.0007999496883712,-0.0008594012469984,-0.0004335188132245,-9.817493438720703,0,0,28.33297348022461,1,1,1000,1000,1.9992,0,0.0007999496883712
1778627316.3992002,56604849,1,0.0007972108433023,0.000722732336726,0.000887329922989,-0.0007932444568723,-0.0012897381093353,-9.81903076171875,0,0,28.33297348022461,1,1,760,800,1.9992,0,0.000887329922989
1778627316.439184,56644833,0,0.0007797569269314,0.0008256341097876,0.0007980845402926,-0.0002321310166735,-0.0009486862691119,-9.816900253295898,0,0,28.33519744873047,1,1,1000,1000,2.039184,0,0.0007980845402926
1778627316.439184,56644833,1,0.0007854636060073,0.0010024143848568,0.0007150273886509,-0.0003693219623528,-0.0018303000833839,-9.819570541381836,0,0,28.33519744873047,1,1,760,800,2.039184,0,0.0007150273886509
1778627316.4800012,56685650,0,0.0009079173905774,0.0008637957507744,0.0008004111587069,-0.0004107224813196,-0.0009297777432948,-9.81781768798828,0,0,28.337474822998047,1,1,1000,1000,2.080001,0,0.0008004111587069
1778627316.4800012,56685650,1,0.0006369233597069,0.0008073762292042,0.0007129153818823,-0.0030254162847995,-0.0024063184391707,-9.816951751708984,0,0,28.337474822998047,1,1,760,800,2.080001,0,0.0007129153818823
1778627316.5199852,56725634,0,0.0007748531061224,0.0008357648621313,0.0007360113086178,-0.0002792182494886,-0.0015068261418491,-9.817493438720703,0,0,28.33969497680664,1,1,1000,1000,2.119985,0,0.0007360113086178
1778627316.5199852,56725634,1,0.0010807841317728,0.0005910370964556,0.0007861862541176,0.0018825677689164,-0.0031610885635018,-9.81757354736328,0,0,28.33969497680664,1,1,760,800,2.119985,0,0.0007861862541176
1778627316.5599692,56765618,0,0.0007517311023548,0.0008188606007024,0.0008196115959435,-0.0011987010948359,-0.0012579399626702,-9.817455291748049,0,0,28.341917037963867,1,1,1000,1000,2.159969,0,0.0008196115959435
1778627316.5599692,56765618,1,0.0008186993654817,0.0008325321250595,0.0008107150788418,-0.0014442922547459,-0.0025896844454109,-9.81735610961914,0,0,28.341917037963867,1,1,760,800,2.159969,0,0.0008107150788418
1778627316.5999532,56805602,0,0.0007237188983708,0.0008163985330611,0.0007632633787579,-0.0007284284220077,0.0003251299785915,-9.816780090332031,0,0,28.34413719177246,1,1,1000,1000,2.199953,0,0.0007632633787579
1778627316.5999532,56805602,1,0.0009352242341265,0.0006629152921959,0.0009064078330993,-0.0034190423320978,-0.0003511791874188,-9.816819190979004,0,0,28.34413719177246,1,1,760,800,2.199953,0,0.0009064078330993
1778627316.6399372,56845586,0,0.0007624726276844,0.0007322971941903,0.0008339195046573,-0.001211637398228,-0.0006272278260439,-9.817051887512209,0,0,28.34635734558105,1,1,1000,1000,2.239937,0,0.0008339195046573
1778627316.6399372,56845586,1,0.0008035185164771,0.0006678916979581,0.0007415294530801,-0.0011026982683688,0.0016253544017672,-9.81701374053955,0,0,28.34635734558105,1,1,760,800,2.239937,0,0.0007415294530801
1778627316.6799212,56885570,0,0.0007919372874312,0.0008341390639543,0.0008279238827526,-0.0004479652561713,-0.0010911696590483,-9.817663192749023,0,0,28.34857749938965,1,1,1000,1000,2.279921,0,0.0008279238827526
1778627316.6799212,56885570,1,0.0006255992921069,0.0006843588198535,0.0006146663799881,5.53216741536744e-05,-0.0001981308305403,-9.816564559936523,0,0,28.34857749938965,1,1,760,800,2.279921,0,0.0006146663799881
1778627316.7199051,56925554,0,0.0007614186033606,0.0008185533224605,0.000863057503011,-0.0006393285002559,-0.0004983062972314,-9.817901611328123,0,0,28.35079765319824,1,1,1000,1000,2.319905,0,0.000863057503011
1778627316.7199051,56925554,1,0.0009492937242612,0.0008360807551071,0.0007765076588839,0.0002149704960174,0.0004702560254372,-9.816349029541016,0,0,28.35079765319824,1,1,760,800,2.319905,0,0.0007765076588839
1778627316.7598891,56965538,0,0.0008644924964755,0.000846856739372,0.0007550619193352,-0.0007710298523306,-0.0004030133713968,-9.81745147705078,0,0,28.35301780700684,1,1,1000,1000,2.359889,0,0.0007550619193352
1778627316.7598891,56965538,1,0.0008401315426453,0.0011899959063157,0.0009962117765098,0.0002054110809694,-0.0010445438092574,-9.81628704071045,0,0,28.35301780700684,1,1,760,800,2.359889,0,0.0009962117765098
1778627316.799873,57005522,0,0.0008123003062792,0.0007098270580172,0.0007814137497916,-0.0006948127993382,-0.0002717372844927,-9.816852569580078,0,0,28.35523796081543,1,1,1000,1000,2.399873,0,0.0007814137497916
1778627316.799873,57005522,1,0.0007459300686605,0.0009589234832674,0.0009188610129058,-0.0021468552295118,-0.0006329718744382,-9.81582260131836,0,0,28.35523796081543,1,1,760,800,2.399873,0,0.0009188610129058
1778627316.839857,57045506,0,0.0008838794892653,0.0008870111196301,0.0007640346884727,-0.0003785958106163,-0.0011813816381618,-9.816482543945312,0,0,28.35745620727539,1,1,1000,1000,2.439857,0,0.0007640346884727
1778627316.839857,57045506,1,0.0007220595143735,0.0008554670494049,0.0008214808185584,-0.0019493086729198,-0.0012362787965685,-9.817925453186035,0,0,28.35745620727539,1,1,760,800,2.439857,0,0.0008214808185584
1778627316.879841,57085490,0,0.000747060868889,0.0008086603484116,0.0008442067191936,-0.0017488657031208,-0.0004296094703022,-9.81816864013672,0,0,28.359676361083984,1,1,1000,1000,2.479841,0,0.0008442067191936
1778627316.879841,57085490,1,0.0005948996404185,0.0005593306850641,0.0007333206594921,4.996187271899544e-05,0.0008842394454404,-9.814959526062012,0,0,28.359676361083984,1,1,760,800,2.479841,0,0.0007333206594921
1778627316.919825,57125474,0,0.0007988514262251,0.0008397947531193,0.0008156342664733,-0.0005313618457876,-0.0011076829396188,-9.817144393920898,0,0,28.361894607543945,1,1,1000,1000,2.519825,0,0.0008156342664733
1778627316.919825,57125474,1,0.0009917716961354,0.0010379457380622,0.0007851923583075,-0.000424566300353,-0.0033399432431906,-9.818126678466797,0,0,28.361839294433597,1,1,760,800,2.519825,0,0.0007851923583075
1778627316.959809,57165458,0,0.0008173757232725,0.0008115275413729,0.0008203011238947,-0.0012915281113237,-0.0014449530281126,-9.817756652832031,0,0,28.364112854003903,1,1,1000,1000,2.559809,0,0.0008203011238947
1778627316.959809,57165458,1,0.0005025084246881,0.0008705467917025,0.0007617708179168,-0.0025043345522135,-0.0012891477672383,-9.816882133483888,0,0,28.364057540893555,1,1,760,800,2.559809,0,0.0007617708179168
1778627316.999793,57205442,0,0.0007449355907738,0.0007987633580341,0.0007407742086797,3.6484569136518985e-05,-0.0009678443311713,-9.81812572479248,0,0,28.366331100463867,1,1,1000,1000,2.599793,0,0.0007407742086797
1778627316.999793,57205442,1,0.0008243911433964,0.0006567909149453,0.0008642759639769,-0.0017720886971801,-0.0021601389162242,-9.818574905395508,0,0,28.36627578735352,1,1,760,800,2.599793,0,0.0008642759639769
1778627317.039777,57245426,0,0.0008056429796852,0.0007513914024457,0.0008612196543253,-0.001184094697237,-0.0016668124590069,-9.817974090576172,0,0,28.368547439575195,1,1,1000,1000,2.639777,0,0.0008612196543253
1778627317.039777,57245426,1,0.0008900030516088,0.0008041699184104,0.0007200631080195,-0.003287048311904,0.0005847978172823,-9.818666458129885,0,0,28.368492126464844,1,1,760,800,2.639777,0,0.0007200631080195
1778627317.079761,57285410,0,0.000828563584946,0.0008064489229582,0.0007516026380471,-0.0015691379085183,-0.0002675941505003,-9.817657470703123,0,0,28.37076568603516,1,1,1000,1000,2.679761,0,0.0007516026380471
1778627317.079761,57285410,1,0.0007018061587586,0.0008753588190302,0.0007373997941613,-0.0016056728782132,-0.0013725637691095,-9.816444396972656,0,0,28.370710372924805,1,1,760,800,2.679761,0,0.0007373997941613
1778627317.119745,57325394,0,0.0007447270327247,0.0008389101712964,0.0007592846523039,-0.0016850028187036,-0.0002233574050478,-9.817362785339355,0,0,28.372982025146484,1,1,1000,1000,2.719745,0,0.0007592846523039
1778627317.119745,57325394,1,0.0007797477883286,0.0008292224374599,0.0005291296984069,-0.0018453847151249,-0.000924946158193,-9.817914962768556,0,0,28.372926712036133,1,1,760,800,2.719745,0,0.0005291296984069
1778627317.159729,57365378,0,0.0007454595761373,0.0007926649414002,0.0007650396437384,-0.0003317194350529,-0.0002813892788253,-9.817359924316406,0,0,28.375200271606445,1,1,1000,1000,2.759729,0,0.0007650396437384
1778627317.159729,57365378,1,0.0007399054593406,0.0008817015914246,0.0009720767266117,-0.0003806821478065,-0.0004619968531187,-9.817655563354492,0,0,28.375144958496094,1,1,760,800,2.759729,0,0.0009720767266117
1778627317.1997128,57405362,0,0.0008245789213106,0.0008002400863915,0.0008362105581909,-0.0008078050450421,-0.000698133255355,-9.817463874816896,0,0,28.377416610717773,1,1,1000,1000,2.799713,0,0.0008362105581909
1778627317.1997128,57405362,1,0.0007398771704174,0.0009863377781584,0.0006109789246693,-0.0008472198387607,0.0007125058909878,-9.81966781616211,0,0,28.37735939025879,1,1,760,800,2.799713,0,0.0006109789246693
1778627317.2396972,57445346,0,0.0007893899455666,0.0007717558182775,0.0008244001655839,-0.0011525222798809,-0.0012684676330536,-9.81856918334961,0,0,28.3796329498291,1,1,1000,1000,2.839697,0,0.0008244001655839
1778627317.2396972,57445346,1,0.0008597640553489,0.0010409128153696,0.0008685915963724,-0.0008603325113654,-0.0053720097057521,-9.817562103271484,0,0,28.37957572937012,1,1,760,800,2.839697,0,0.0008685915963724
1778627317.2796812,57485330,0,0.000778940913733,0.0007571188034489,0.0008045978611335,-0.001359099522233,6.539872993016616e-05,-9.81753158569336,0,0,28.3818473815918,1,1,1000,1000,2.879681,0,0.0008045978611335
1778627317.2796812,57485330,1,0.0006149822147563,0.0008684810018166,0.0009815514786168,0.00125913543161,-0.0013913734583184,-9.817533493041992,0,0,28.381792068481445,1,1,760,800,2.879681,0,0.0009815514786168
1778627317.3196652,57525314,0,0.0008599905413575,0.0008402083767578,0.0008941746200434,-0.0007413332350552,-0.0011726747034117,-9.818087577819824,0,0,28.384063720703125,1,1,1000,1000,2.919665,0,0.0008941746200434
1778627317.3196652,57525314,1,0.0007189311436377,0.0007663971045985,0.0008405526168644,-0.0021780761890113,-0.0035651482176035,-9.818005561828612,0,0,28.384008407592773,1,1,760,800,2.919665,0,0.0008405526168644
1778627317.3596492,57565298,0,0.0007752868114039,0.0008405072148889,0.0007799629238434,-0.001017595292069,-0.0014979711268097,-9.817081451416016,0,0,28.38627815246582,1,1,1000,1000,2.959649,0,0.0007799629238434
1778627317.3596492,57565298,1,0.0006197734037414,0.000772283936385,0.0007666710880585,-0.0025615016929805,-0.0013322612503543,-9.818170547485352,0,0,28.38622283935547,1,1,760,800,2.959649,0,0.0007666710880585
1778627317.3996332,57605282,0,0.00080182030797,0.0008531931089237,0.0007859111065044,-0.0012911799130961,-0.0019322920124977,-9.81747055053711,0,0,28.38849449157715,1,1,1000,1000,2.999633,0,0.0007859111065044
1778627317.3996332,57605282,1,0.0009413518710061,0.0007353271939791,0.0010389785747975,-0.0017171807121485,-0.0011605848558247,-9.816730499267578,0,0,28.3884391784668,1,1,760,800,2.999633,0,0.0010389785747975
1778627317.4396172,57645266,0,0.0008505955338478,0.0008190318476408,0.0007988279685378,-0.0008273031562566,-0.0015287209535017,-9.816726684570312,0,0,28.390708923339844,1,1,1000,1000,3.039617,0,0.0007988279685378
1778627317.4396172,57645266,1,0.0004747593193314,0.0006755415233783,0.0007279260316863,-0.0007399120368063,0.0002598454884719,-9.816079139709473,0,0,28.39065361022949,1,1,760,800,3.039617,0,0.0007279260316863
1778627317.4796011,57685250,0,0.0008598560816608,0.0007750765653327,0.000821616500616,2.367948036408052e-05,-0.0020475937053561,-9.81849479675293,0,0,28.39292335510254,1,1,1000,1000,3.079601,0,0.000821616500616
1778627317.4796011,57685250,1,0.000832429388538,0.0008926793816499,0.0006687372224405,0.0018706497503444,0.0002224831841886,-9.819122314453123,0,0,28.392868041992188,1,1,760,800,3.079601,0,0.0006687372224405
1778627317.5195851,57725234,0,0.0007309382781386,0.0008218053844757,0.0007456224411725,-0.0005249257665127,-0.0014998086262494,-9.816837310791016,0,0,28.3951358795166,1,1,1000,1000,3.119585,0,0.0007456224411725
1778627317.5195851,57725234,1,0.0007952463929541,0.0006927865906618,0.0006611583521589,0.0014495734358206,-0.0014964193105697,-9.81635856628418,0,0,28.395082473754883,1,1,760,800,3.119585,0,0.0006611583521589
1778627317.5595691,57765218,0,0.0008552751969546,0.0008675177814438,0.0007793436525389,-0.0014223026810213,-0.0016267246101051,-9.817030906677246,0,0,28.397294998168945,1,1,1000,1000,3.159569,0,0.0007793436525389
1778627317.5595691,57765218,1,0.0009891389636322,0.0008533493382856,0.0007399465539492,-0.0021901798900216,-0.0028422933537513,-9.81741714477539,0,0,28.397294998168945,1,1,760,800,3.159569,0,0.0007399465539492
1778627317.599553,57805202,0,0.0007771849632263,0.0007466716924682,0.000830395030789,-0.0004628565511666,-0.0007817898876965,-9.816896438598633,0,0,28.39950942993164,1,1,1000,1000,3.199553,0,0.000830395030789
1778627317.599553,57805202,1,0.0006592641002498,0.0008961426210589,0.00080918247113,-0.0010811740066856,0.0006842953152954,-9.818011283874512,0,0,28.39950942993164,1,1,760,800,3.199553,0,0.00080918247113
1778627317.639537,57845186,0,0.0008133906521834,0.0008556804968975,0.0007631658809259,-0.0013112956658005,-0.001576542854309,-9.817421913146973,0,0,28.401721954345703,1,1,1000,1000,3.239537,0,0.0007631658809259
1778627317.639537,57845186,1,0.0008626867784187,0.0010374787962064,0.0007572109461762,-0.0026118529494851,5.044890713179484e-06,-9.818662643432615,0,0,28.401721954345703,1,1,760,800,3.239537,0,0.0007572109461762
1778627317.679521,57885170,0,0.0007788548246026,0.0007989988080225,0.0007845801883377,-0.0006982488557696,-0.0007013558060862,-9.817498207092283,0,0,28.40393447875977,1,1,1000,1000,3.279521,0,0.0007845801883377
1778627317.679521,57885170,1,0.0005550138885155,0.001086306059733,0.0009322165278717,-0.0017555106896907,0.0012109541567042,-9.81586456298828,0,0,28.40393447875977,1,1,760,800,3.279521,0,0.0009322165278717
1778627317.719505,57925154,0,0.0007828082889318,0.0008042227709665,0.0008136334363371,-0.0008310721023008,-0.0008338698535226,-9.817774772644045,0,0,28.406147003173828,1,1,1000,1000,3.319505,0,0.0008136334363371
1778627317.719505,57925154,1,0.0007319895667023,0.0005823486717417,0.0008987519540823,0.0002087054599542,0.0003481385065242,-9.814254760742188,0,0,28.406147003173828,1,1,760,800,3.319505,0,0.0008987519540823
1778627317.759489,57965138,0,0.0007955130422487,0.0008342229411937,0.000843328773044,-0.0018604381475597,-0.0010721299331635,-9.818408012390137,0,0,28.40835952758789,1,1,1000,1000,3.359489,0,0.000843328773044
1778627317.759489,57965138,1,0.0009696310735307,0.0007551025482825,0.0006696560885757,-0.0021671252325177,-0.0012039700523018,-9.8158540725708,0,0,28.40835952758789,1,1,760,800,3.359489,0,0.0006696560885757
1778627317.799473,58005122,0,0.0007403877680189,0.0007868531392887,0.0008633183315396,-0.0013343661557883,-0.0021535214036703,-9.818015098571776,0,0,28.410572052001957,1,1,1000,1000,3.399473,0,0.0008633183315396
1778627317.799473,58005122,1,0.0006975794094614,0.0007096360204741,0.0007520203362219,-0.0016266298480331,-0.0013416574802249,-9.816410064697266,0,0,28.410572052001957,1,1,760,800,3.399473,0,0.0007520203362219
1778627317.839457,58045106,0,0.00087305722991,0.000857834063936,0.0008228789665736,-0.0012322660768404,-0.000591927091591,-9.817256927490234,0,0,28.412784576416016,1,1,1000,1000,3.439457,0,0.0008228789665736
1778627317.839457,58045106,1,0.0007095277542248,0.0007006946252658,0.0008315359009429,-0.0002966029569506,-0.0027257208712399,-9.815927505493164,0,0,28.412784576416016,1,1,760,800,3.439457,0,0.0008315359009429
1778627317.879441,58085090,0,0.0008083194843493,0.0008556848042644,0.0008320398628711,-0.0002032154006883,-0.0014711504336446,-9.81727409362793,0,0,28.414995193481445,1,1,1000,1000,3.479441,0,0.0008320398628711
1778627317.879441,58085090,1,0.0008235402638092,0.0008052130579017,0.0006519858725368,-0.0006873010424897,-0.0009549603564664,-9.820384979248049,0,0,28.414995193481445,1,1,760,800,3.479441,0,0.0006519858725368
1778627317.919425,58125074,0,0.000847817165777,0.0007591093890368,0.0007728206692263,-0.00139243574813,-0.0009297071956098,-9.817476272583008,0,0,28.417207717895508,1,1,1000,1000,3.519425,0,0.0007728206692263
1778627317.919425,58125074,1,0.0006487888749688,0.0008143373997882,0.0009291663300246,-9.81539415079169e-05,8.755675662541762e-05,-9.820561408996582,0,0,28.417207717895508,1,1,760,800,3.519425,0,0.0009291663300246
1778627317.959409,58165058,0,0.00086682185065,0.0007776974816806,0.0007818757439963,-0.0007408511009998,-0.0023263213224709,-9.817144393920898,0,0,28.41947364807129,1,1,1000,1000,3.559409,0,0.0007818757439963
1778627317.959409,58165058,1,0.0006970306276343,0.0010329713113605,0.0007201269618235,-0.0003343896823935,-0.001245170016773,-9.82008934020996,0,0,28.41947364807129,1,1,760,800,3.559409,0,0.0007201269618235
1778627317.9993927,58205042,0,0.0008006555144675,0.0008131936774589,0.0008739710319787,-2.302306893398054e-05,-0.001388014992699,-9.816967964172363,0,0,28.42168426513672,1,1,1000,1000,3.599393,0,0.0008739710319787
1778627317.9993927,58205042,1,0.000842162349727,0.000614782969933,0.0006729082087986,-0.0016295376699417,0.0007420244510285,-9.818370819091797,0,0,28.42168426513672,1,1,760,800,3.599393,0,0.0006729082087986
1778627318.0393772,58245026,0,0.0007978935027495,0.0008405407425016,0.0007880257326178,-0.0008933871285989,-0.0023549227043986,-9.818202018737791,0,0,28.42389297485352,1,1,1000,1000,3.639377,0,0.0007880257326178
1778627318.0393772,58245026,1,0.0009017183328978,0.000905665976461,0.0009172168793156,-0.0006090821116231,5.497292659129016e-05,-9.817469596862791,0,0,28.42389297485352,1,1,760,800,3.639377,0,0.0009172168793156
1778627318.0793612,58285010,0,0.00091285596136,0.0007940066279843,0.0007778892759233,4.797818837687373e-05,-0.0009293116163462,-9.818195343017578,0,0,28.426103591918945,1,1,1000,1000,3.679361,0,0.0007778892759233
1778627318.0793612,58285010,1,0.0009416723041795,0.0006758536328561,0.0005868480657227,0.0017869514413177,-0.0047564031556248,-9.820233345031738,0,0,28.426103591918945,1,1,760,800,3.679361,0,0.0005868480657227
1778627318.1193452,58324994,0,0.0008388441056013,0.0007625923026353,0.0008116363314911,-0.0011077744420617,-0.0006764055578969,-9.817547798156738,0,0,28.428258895874023,1,1,1000,1000,3.719345,0,0.0008116363314911
1778627318.1193452,58324994,1,0.0005751578719355,0.0007855789735913,0.000813816091977,-0.0009320575045421,-0.0028748856857419,-9.816741943359377,0,0,28.428258895874023,1,1,760,800,3.719345,0,0.000813816091977
1778627318.1593292,58364978,0,0.000841706409119,0.0008241310133598,0.0008137837867252,-0.0015586405061185,-0.0007256497628986,-9.817066192626951,0,0,28.43046760559082,1,1,1000,1000,3.759329,0,0.0008137837867252
1778627318.1593292,58364978,1,0.0007473893929272,0.0008294148137792,0.000764463446103,0.0004602388653438,-0.0024426109157502,-9.816479682922363,0,0,28.43046760559082,1,1,760,800,3.759329,0,0.000764463446103
1778627318.1993132,58404962,0,0.0008374762837775,0.0007925560930743,0.0008365673129446,-0.0004883294459432,-0.0013479969929903,-9.817896842956545,0,0,28.432676315307617,1,1,1000,1000,3.799313,0,0.0008365673129446
1778627318.1993132,58404962,1,0.0008139571291394,0.000736448506359,0.0007309343200176,-0.004687666427344,-0.0036315058823674,-9.817138671875,0,0,28.432676315307617,1,1,760,800,3.799313,0,0.0007309343200176
1778627318.2392972,58444946,0,0.0007572388276457,0.0007443961803801,0.0008563999435864,-0.0008653861004859,-0.0006135945441201,-9.817124366760254,0,0,28.43488502502441,1,1,1000,1000,3.839297,0,0.0008563999435864
1778627318.2392972,58444946,1,0.0008000927628017,0.0008201059536077,0.0006890172953717,-0.0013927127001807,-0.0024827518500387,-9.820390701293944,0,0,28.43488502502441,1,1,760,800,3.839297,0,0.0006890172953717
1778627318.2792811,58484930,0,0.0008581067668274,0.0007956617046147,0.0008510906482115,-0.0015439447015523,-0.0004771574749611,-9.8181734085083,0,0,28.437095642089844,1,1,1000,1000,3.879281,0,0.0008510906482115
1778627318.2792811,58484930,1,0.0008096697274595,0.0008218140574172,0.0008737468160688,0.0003712548932526,-0.0001895084569696,-9.818918228149414,0,0,28.437095642089844,1,1,760,800,3.879281,0,0.0008737468160688
1778627318.3192651,58524914,0,0.0008883529226295,0.0008058256935328,0.0007443739450536,-0.0004366086213849,-0.0004798538866452,-9.81733226776123,0,0,28.439302444458008,1,1,1000,1000,3.919265,0,0.0007443739450536
1778627318.3192651,58524914,1,0.0008637271821498,0.0007921067299321,0.0009067095234058,-0.0001699348649708,-0.0021608411334455,-9.818562507629396,0,0,28.439302444458008,1,1,760,800,3.919265,0,0.0009067095234058
1778627318.359249,58564898,0,0.0008828355930745,0.0007316332194022,0.0008023949339985,0.0001328424405073,-0.001695271814242,-9.817586898803713,0,0,28.44150924682617,1,1,1000,1000,3.959249,0,0.0008023949339985
1778627318.359249,58564898,1,0.0011578418780118,0.0009949574014171,0.0008343781228177,-0.0034267578739672,-0.0034009048249572,-9.817522048950195,0,0,28.44150924682617,1,1,760,800,3.959249,0,0.0008343781228177
1778627318.399233,58604882,0,0.0008965827291831,0.0007189933094196,0.0008493014611303,-0.0001983031106647,-0.0008498977986164,-9.81689453125,0,0,28.44371795654297,1,1,1000,1000,3.999233,0,0.0008493014611303
1778627318.399233,58604882,1,0.0005555868847295,0.0009178302716463,0.0008545311866328,-0.0011498611420392,0.0006563815986737,-9.81671905517578,0,0,28.44371795654297,1,1,760,800,3.999233,0,0.0008545311866328
1778627318.439217,58644866,0,0.0007804479100741,0.0007620441028848,0.0007970742881298,-0.0013367284554988,-0.0001329775841441,-9.817447662353516,0,0,28.44592666625977,1,1,1000,1000,4.039217,0,0.0007970742881298
1778627318.439217,58644866,1,0.0007160024833865,0.0005391666200011,0.0008181818993762,0.0003828750632237,-0.0022007031366229,-9.818726539611816,0,0,28.44592666625977,1,1,760,800,4.039217,0,0.0008181818993762
1778627318.479201,58684850,0,0.0007875657174736,0.0008121053688228,0.0007431627018377,-0.002386552747339,-0.0007163220434449,-9.817184448242188,0,0,28.448131561279297,1,1,1000,1000,4.079201,0,0.0007431627018377
1778627318.479201,58684850,1,0.0005340003990568,0.0004847369855269,0.0007135621272027,0.0002066635643132,-0.0018135677091777,-9.81705379486084,0,0,28.448131561279297,1,1,760,800,4.079201,0,0.0007135621272027
1778627318.519185,58724834,0,0.0008653876720927,0.0008356880862265,0.0008461390389129,-0.0008557351538911,-0.0012057127896696,-9.818402290344238,0,0,28.45033836364746,1,1,1000,1000,4.119185,0,0.0008461390389129
1778627318.519185,58724834,1,0.0008186046034097,0.0006265311967581,0.0007429920369759,-0.001942231087014,-0.0002875048085115,-9.81764793395996,0,0,28.45033836364746,1,1,760,800,4.119185,0,0.0007429920369759
1778627318.560002,58765651,0,0.0008093737997114,0.0008123769075609,0.0008534163935109,-0.001476660836488,-0.0016471080016344,-9.816940307617188,0,0,28.45260238647461,1,1,1000,1000,4.160002,0,0.0008534163935109
1778627318.560002,58765651,1,0.0008779539493843,0.0009203611989505,0.0009347090381197,-0.0001155883437604,-0.001543671824038,-9.8163423538208,0,0,28.45260238647461,1,1,760,800,4.160002,0,0.0009347090381197
1778627318.599986,58805635,0,0.0007958139758557,0.0008490771870128,0.0008658215519972,-0.0010341699235141,-0.0005340280476957,-9.817754745483398,0,0,28.45480728149414,1,1,1000,1000,4.199986,0,0.0008658215519972
1778627318.599986,58805635,1,0.0006764329737052,0.0008653822587803,0.0010332686360925,-0.0021394225768744,-0.0020514926873147,-9.81649684906006,0,0,28.45480728149414,1,1,760,800,4.199986,0,0.0010332686360925
1778627318.63997,58845619,0,0.0007931606378406,0.0008281980408355,0.0007970773149281,-0.0008343742229044,-0.0006818004185333,-9.81764030456543,0,0,28.457014083862305,1,1,1000,1000,4.23997,0,0.0007970773149281
1778627318.63997,58845619,1,0.0008712003473192,0.000602321291808,0.0010081887012347,-0.0005449579330161,-0.0001408771495334,-9.812179565429688,0,0,28.457014083862305,1,1,760,800,4.23997,0,0.0010081887012347
1778627318.679954,58885603,0,0.0008166275219991,0.0008840531227178,0.000863300578203,-0.001185497501865,-0.0001657498069107,-9.81649398803711,0,0,28.45921897888184,1,1,1000,1000,4.279954,0,0.000863300578203
1778627318.679954,58885603,1,0.0006212340667843,0.0008756460738368,0.0007294785464182,-0.0001000332122202,-0.0013357133138924,-9.816448211669922,0,0,28.45921897888184,1,1,760,800,4.279954,0,0.0007294785464182
1778627318.719938,58925587,0,0.0008108919137157,0.000781285110861,0.0008631814271211,-0.0009738956578075,-0.0009188640397042,-9.817306518554688,0,0,28.461423873901367,1,1,1000,1000,4.319938,0,0.0008631814271211
1778627318.719938,58925587,1,0.00104105041828,0.0007305584149435,0.0008377109188586,0.000931944407057,-0.0019373559625819,-9.814109802246094,0,0,28.461423873901367,1,1,760,800,4.319938,0,0.0008377109188586
1778627318.759922,58965571,0,0.0008183340542018,0.0008581303991377,0.0008637128048576,-0.0009046223713085,-0.0003627440310083,-9.817034721374512,0,0,28.4636287689209,1,1,1000,1000,4.359922,0,0.0008637128048576
1778627318.759922,58965571,1,0.0008976501412689,0.0008792240987531,0.0007943691452965,-0.0017403272213414,-0.0014893047045916,-9.820246696472168,0,0,28.4636287689209,1,1,760,800,4.359922,0,0.0007943691452965
1778627318.799906,59005555,0,0.0008171626250259,0.0008052831981331,0.0008606609189882,-0.0005251042312011,-0.0003295775386504,-9.817512512207031,0,0,28.46583366394043,1,1,1000,1000,4.399906,0,0.0008606609189882
1778627318.799906,59005555,1,0.0010293116793036,0.0008018825901672,0.0007631024345755,-0.0002293497382197,-0.0024881232529878,-9.817273139953612,0,0,28.46583366394043,1,1,760,800,4.399906,0,0.0007631024345755
1778627318.83989,59045539,0,0.000742976902984,0.0008430377347394,0.0007579935481771,-0.0016301344148814,-0.0019102292135357,-9.817384719848633,0,0,28.46803855895996,1,1,1000,1000,4.43989,0,0.0007579935481771
1778627318.83989,59045539,1,0.0009711575694382,0.0008964876178652,0.0009158335160464,0.0013287446927279,-0.0004291018121875,-9.818881034851074,0,0,28.46803855895996,1,1,760,800,4.43989,0,0.0009158335160464
1778627318.879874,59085523,0,0.0008704360225237,0.0008958826656453,0.0008621283341199,-0.0008441359386779,-0.0024401985574513,-9.81752586364746,0,0,28.47024154663086,1,1,1000,1000,4.479874,0,0.0008621283341199
1778627318.879874,59085523,1,0.0007557341596111,0.0010136859491467,0.0007990110316313,-0.0019419958116486,-0.0005254415445961,-9.816558837890623,0,0,28.47024154663086,1,1,760,800,4.479874,0,0.0007990110316313
1778627318.9198582,59125507,0,0.0008727958193048,0.0007957156049087,0.0007821211474947,-0.0013321106089279,-0.0005140684079378,-9.816182136535645,0,0,28.47244644165039,1,1,1000,1000,4.519858,0,0.0007821211474947
1778627318.9198582,59125507,1,0.0008430955349467,0.0008742142817936,0.000969337648712,-0.0021631007548421,-0.0011074708309024,-9.81863021850586,0,0,28.47244644165039,1,1,760,800,4.519858,0,0.000969337648712
1778627318.9598422,59165491,0,0.0008881635149009,0.0007590059540234,0.0008508558385074,-0.0028487667441368,-0.0006073318654671,-9.817726135253906,0,0,28.47464942932129,1,1,1000,1000,4.559842,0,0.0008508558385074
1778627318.9598422,59165491,1,0.0008330337004736,0.0006112762494012,0.0005746351671405,-0.0037981097120791,-0.0017121472628787,-9.81692123413086,0,0,28.47464942932129,1,1,760,800,4.559842,0,0.0005746351671405
1778627318.999826,59205475,0,0.0007765094051137,0.0008879006491042,0.0008343841182067,-0.0007990674930624,-0.0010571859311312,-9.817761421203612,0,0,28.476852416992188,1,1,1000,1000,4.599826,0,0.0008343841182067
1778627318.999826,59205475,1,0.0005991258658468,0.0007462576613761,0.0007213616045191,-0.0031051950063556,0.0001871135900728,-9.81753158569336,0,0,28.47679710388184,1,1,760,800,4.599826,0,0.0007213616045191
1778627319.03981,59245459,0,0.0008632591343484,0.0008296488085761,0.0008827134734019,-0.0011921767145395,0.0006148261018097,-9.816973686218262,0,0,28.47905540466309,1,1,1000,1000,4.63981,0,0.0008827134734019
1778627319.03981,59245459,1,0.0008782256627455,0.0007979222573339,0.0007818292360752,-0.0011631111847236,0.002870409283787,-9.81717586517334,0,0,28.47900009155273,1,1,760,800,4.63981,0,0.0007818292360752
1778627319.079794,59285443,0,0.0008068074239417,0.0007718653068877,0.0008208652143366,-0.0008541665156371,-0.0016189189627766,-9.817411422729492,0,0,28.481258392333984,1,1,1000,1000,4.679794,0,0.0008208652143366
1778627319.079794,59285443,1,0.0008956128731369,0.00074562150985,0.0007651977939531,-0.002141810953617,0.0012181894853711,-9.816944122314451,0,0,28.481203079223636,1,1,760,800,4.679794,0,0.0007651977939531
1778627319.119778,59325427,0,0.0008179430733434,0.0007319893920794,0.000816760584712,-0.0002616657875478,0.0001775556738721,-9.818373680114746,0,0,28.483461380004883,1,1,1000,1000,4.719778,0,0.000816760584712
1778627319.119778,59325427,1,0.0007838804740458,0.0005606364575214,0.0009849349735304,-0.0023252388928085,-0.0018157231388613,-9.81698226928711,0,0,28.48340606689453,1,1,760,800,4.719778,0,0.0009849349735304
1778627319.159762,59365411,0,0.0008327127434313,0.0008536666864529,0.0008167645428329,-0.0005989141063764,-0.0005015072529204,-9.818166732788086,0,0,28.48566246032715,1,1,1000,1000,4.759762,0,0.0008167645428329
1778627319.159762,59365411,1,0.0008269096724689,0.0009589925175532,0.0009529251838102,-0.0022883252240717,-0.0015471598599106,-9.81944179534912,0,0,28.4856071472168,1,1,760,800,4.759762,0,0.0009529251838102
1778627319.199746,59405395,0,0.0007895181188359,0.0007679177215322,0.0008289171964861,-0.0011789316777139,-0.001418633153662,-9.817734718322754,0,0,28.487865447998047,1,1,1000,1000,4.799746,0,0.0008289171964861
1778627319.199746,59405395,1,0.0008026750292629,0.000931845861487,0.0007771665696054,-0.0028247924055904,-0.0005574218230322,-9.81683349609375,0,0,28.48781013488769,1,1,760,800,4.799746,0,0.0007771665696054
1778627319.23973,59445379,0,0.0008812876185402,0.0008787387050688,0.0007915119640529,-0.0004490199207793,-0.0004410909023135,-9.817447662353516,0,0,28.49006462097168,1,1,1000,1000,4.83973,0,0.0007915119640529
1778627319.23973,59445379,1,0.0009124373318627,0.0008307592361234,0.0009642166551202,0.0007586705032736,0.000410984706832,-9.816680908203123,0,0,28.49001121520996,1,1,760,800,4.83973,0,0.0009642166551202
1778627319.279714,59485363,0,0.0008245825883932,0.0009327360312454,0.0008097635582089,-0.0004208642349112,-0.0010555131593719,-9.817283630371094,0,0,28.492267608642575,1,1,1000,1000,4.879714,0,0.0008097635582089
1778627319.279714,59485363,1,0.0007965029217302,0.0008579684072174,0.0009179351036436,-0.0023818146437406,-0.0010536722838878,-9.816530227661133,0,0,28.492212295532227,1,1,760,800,4.879714,0,0.0009179351036436
1778627319.319698,59525347,0,0.0009040627046488,0.0008314314181916,0.0009302472462877,-0.0004189188184682,-0.0007547982968389,-9.816821098327637,0,0,28.494468688964844,1,1,1000,1000,4.919698,0,0.0009302472462877
1778627319.319698,59525347,1,0.0007187722949311,0.0008682908955961,0.0008723774226382,-0.0005632602260448,0.0018757623620331,-9.816962242126465,0,0,28.49441337585449,1,1,760,800,4.919698,0,0.0008723774226382
1778627319.359682,59565331,0,0.0007745657349005,0.0008764344966039,0.000877882936038,-0.0014722821069881,-0.0011582114966586,-9.818156242370604,0,0,28.49666786193848,1,1,1000,1000,4.959682,0,0.000877882936038
1778627319.359682,59565331,1,0.00073313631583,0.0009025229373946,0.0008130143978632,-0.0018505733460187,-0.0003404780873097,-9.81648063659668,0,0,28.496612548828125,1,1,760,800,4.959682,0,0.0008130143978632
1778627319.399666,59605315,0,0.0008255206630565,0.0008282177150249,0.0008657707367092,-0.0015720383962616,0.0004323426110204,-9.817619323730469,0,0,28.498868942260746,1,1,1000,1000,4.999666,0,0.0008657707367092
1778627319.399666,59605315,1,0.0004718356940429,0.0006651563453488,0.0008873330662027,0.0014498878736048,0.0003762523119803,-9.818167686462402,0,0,28.49881362915039,1,1,760,800,4.999666,0,0.0008873330662027
1778627319.43965,59645299,0,0.0008664192864671,0.0008202285971492,0.0008425506530329,-0.0013139051152393,-0.0008009411394596,-9.817298889160156,0,0,28.501070022583008,1,1,1000,1000,5.03965,0,0.0008425506530329
1778627319.43965,59645299,1,0.0009305650601163,0.0008657807484269,0.0009217211627401,-0.0036441329866647,-0.0010828655213117,-9.818639755249023,0,0,28.501012802124023,1,1,760,800,5.03965,0,0.0009217211627401
1778627319.479634,59685283,0,0.0008651987882331,0.0007598934462293,0.0007771853706799,-0.0007125828415155,-0.0006778652896173,-9.817965507507324,0,0,28.50326919555664,1,1,1000,1000,5.079634,0,0.0007771853706799
1778627319.479634,59685283,1,0.0009556857985444,0.0010518466588109,0.0006924921763129,-0.0035437957849353,-0.0013478160835802,-9.815658569335938,0,0,28.50321388244629,1,1,760,800,5.079634,0,0.0006924921763129
1778627319.519618,59725267,0,0.0008678098092786,0.0008075557998381,0.0008636290440335,-0.0001460607891203,-0.0006549681420437,-9.817878723144531,0,0,28.505468368530277,1,1,1000,1000,5.119618,0,0.0008636290440335
1778627319.519618,59725267,1,0.0007534754113294,0.0010596627835184,0.0009259568178094,-0.0001857245515566,0.0006267788121476,-9.81614112854004,0,0,28.50541305541992,1,1,760,800,5.119618,0,0.0009259568178094
1778627319.559602,59765251,0,0.0008059063111431,0.0009148949757218,0.000885595625732,-0.0016925241798162,-0.0015671378932893,-9.81640911102295,0,0,28.507667541503903,1,1,1000,1000,5.159602,0,0.000885595625732
1778627319.559602,59765251,1,0.0008460363605991,0.0007383353076875,0.0009596642339602,-0.000887956644874,-0.0018444819143041,-9.817466735839844,0,0,28.507612228393555,1,1,760,800,5.159602,0,0.0009596642339602
1778627319.599586,59805235,0,0.0008736595627851,0.0007933917222544,0.0007794412085786,-0.0015454590320587,-0.0003059052978642,-9.81643772125244,0,0,28.50986671447754,1,1,1000,1000,5.199586,0,0.0007794412085786
1778627319.599586,59805235,1,0.0007644932484254,0.0010036090388894,0.0010122878011316,-0.0006035681581124,-0.0013804039917886,-9.817052841186523,0,0,28.509811401367188,1,1,760,800,5.199586,0,0.0010122878011316
1778627319.63957,59845219,0,0.0008375839679501,0.0008657211437821,0.0008040039101615,-0.0011360074859112,-0.0007080809446051,-9.81820011138916,0,0,28.512008666992188,1,1,1000,1000,5.23957,0,0.0008040039101615
1778627319.63957,59845219,1,0.0007841574843041,0.0007217096281237,0.0008173758396878,0.0018371504265815,-0.0002679133322089,-9.818277359008787,0,0,28.512008666992188,1,1,760,800,5.23957,0,0.0008173758396878
1778627319.679554,59885203,0,0.0008031885372474,0.0008085822337307,0.0008266518707387,-0.0006718669901601,-0.0009960836032405,-9.816848754882812,0,0,28.51420783996582,1,1,1000,1000,5.279554,0,0.0008266518707387
1778627319.679554,59885203,1,0.000683314865455,0.0009087734506465,0.0010815251152962,-0.0013284580782055,0.0005236986326053,-9.817645072937012,0,0,28.51420783996582,1,1,760,800,5.279554,0,0.0010815251152962
1778627319.7195382,59925187,0,0.0008229672093875,0.00083201052621,0.0007755739497952,-0.0015819675754755,-0.0013553390745073,-9.817927360534668,0,0,28.51640510559082,1,1,1000,1000,5.319538,0,0.0007755739497952
1778627319.7195382,59925187,1,0.0007242360152304,0.0007617904921062,0.000834914506413,0.0005660774186253,-0.0015936506679281,-9.817453384399414,0,0,28.51640510559082,1,1,760,800,5.319538,0,0.000834914506413
1778627319.7595222,59965171,0,0.0009176979074254,0.0008414055919274,0.0008315853774547,-0.0005500162369571,-0.000997501425445,-9.817404747009276,0,0,28.518604278564453,1,1,1000,1000,5.359522,0,0.0008315853774547
1778627319.7595222,59965171,1,0.0008065904839895,0.0008801046060398,0.000841159839183,-0.0029203165322542,-0.0026798730250447,-9.81471061706543,0,0,28.518604278564453,1,1,760,800,5.359522,0,0.000841159839183
1778627319.799506,60005155,0,0.0008904721471481,0.00082307663979,0.0008597510750405,-0.0015705678379163,-0.0014538583345711,-9.816946029663086,0,0,28.520801544189453,1,1,1000,1000,5.399506,0,0.0008597510750405
1778627319.799506,60005155,1,0.0008754459558986,0.0006504788761958,0.0008159364806488,-0.0006043572211638,-0.0014385480899363,-9.817030906677246,0,0,28.520801544189453,1,1,760,800,5.399506,0,0.0008159364806488
1778627319.83949,60045139,0,0.0007591105531901,0.0008359503117389,0.0008231350802816,-0.0010056600440293,-0.001663725124672,-9.816923141479492,0,0,28.522998809814453,1,1,1000,1000,5.43949,0,0.0008231350802816
1778627319.83949,60045139,1,0.0009828526526689,0.0011765896342694,0.001141054672189,-0.0015991928521543,-0.0010387754300609,-9.816621780395508,0,0,28.522998809814453,1,1,760,800,5.43949,0,0.001141054672189
1778627319.879474,60085123,0,0.0008203196339309,0.0009104468626901,0.0008970805210992,-0.0014772134600207,-0.0014360153581947,-9.81706428527832,0,0,28.525196075439453,1,1,1000,1000,5.479474,0,0.0008970805210992
1778627319.879474,60085123,1,0.0008030327153392,0.0007266922038979,0.0008839303045533,0.0001002680000965,-0.0011879536323249,-9.818243980407717,0,0,28.525196075439453,1,1,760,800,5.479474,0,0.0008839303045533
1778627319.919458,60125107,0,0.0008604091126471,0.0008692535338923,0.0008658411097712,-0.0014987315516918,-0.0008248045342043,-9.81658172607422,0,0,28.52739143371582,1,1,1000,1000,5.519458,0,0.0008658411097712
1778627319.919458,60125107,1,0.0009017084375955,0.0008707248489372,0.0007570999441668,0.0012069063959643,-0.0002792741579469,-9.821176528930664,0,0,28.52739143371582,1,1,760,800,5.519458,0,0.0007570999441668
1778627319.959442,60165091,0,0.0008425841806456,0.0007559146615676,0.0008774156449362,-0.001774204429239,-0.001256903167814,-9.817338943481444,0,0,28.529586791992188,1,1,1000,1000,5.559442,0,0.0008774156449362
1778627319.959442,60165091,1,0.0008286595111712,0.0008547519682906,0.0006938509177416,-0.0016891633858904,-0.0022601375821977,-9.816854476928713,0,0,28.529586791992188,1,1,760,800,5.559442,0,0.0006938509177416
1778627319.999426,60205075,0,0.0008863398688845,0.0009014679817482,0.000817320367787,-0.0013445619260892,-0.0012152858544141,-9.817527770996094,0,0,28.531782150268555,1,1,1000,1000,5.599426,0,0.000817320367787
1778627319.999426,60205075,1,0.0007831533439457,0.0008500465773977,0.0007440678891725,0.0023054941557347,0.0003504766791593,-9.818565368652344,0,0,28.531782150268555,1,1,760,800,5.599426,0,0.0007440678891725
1778627320.03941,60245059,0,0.0008364913519471,0.0008504814468324,0.0008973034564405,-0.0010783930774778,-0.0011643155012279,-9.817550659179688,0,0,28.534032821655277,1,1,1000,1000,5.63941,0,0.0008973034564405
1778627320.03941,60245059,1,0.00078905565897,0.0008115182863548,0.0007721100701019,-0.0010581745300441,0.0011400480289012,-9.818674087524414,0,0,28.534032821655277,1,1,760,800,5.63941,0,0.0007721100701019
1778627320.079394,60285043,0,0.0008487568120472,0.0008932638447731,0.0008312041172757,-0.0006355351652018,-0.0012077522696927,-9.818086624145508,0,0,28.53622817993164,1,1,1000,1000,5.679394,0,0.0008312041172757
1778627320.079394,60285043,1,0.0008429595036432,0.000639556266833,0.0008275305735878,-0.0010341659653931,-0.0005186349153518,-9.818511962890623,0,0,28.53622817993164,1,1,760,800,5.679394,0,0.0008275305735878
1778627320.119378,60325027,0,0.0007832228438928,0.0009255440672859,0.0008752260473556,-0.0017855940386652,-0.0015716335037723,-9.817604064941406,0,0,28.538423538208008,1,1,1000,1000,5.719378,0,0.0008752260473556
1778627320.119378,60325027,1,0.0006528655649162,0.0008623647736385,0.0007899670163169,-0.0013562485110014,0.0003625694662332,-9.817708969116213,0,0,28.538423538208008,1,1,760,800,5.719378,0,0.0007899670163169
1778627320.159362,60365011,0,0.0008462512632831,0.0008624020847491,0.000890988507308,-0.0004133994225412,-0.0006708344444632,-9.817782402038574,0,0,28.54061889648437,1,1,1000,1000,5.759362,0,0.000890988507308
1778627320.159362,60365011,1,0.000819464912638,0.000889518589247,0.0007385654025711,-0.000987941166386,-0.0007944230455905,-9.816072463989258,0,0,28.54061889648437,1,1,760,800,5.759362,0,0.0007385654025711
1778627320.199346,60404995,0,0.0008666295325383,0.0008524799486622,0.0008639302104711,-0.0005586593179032,-0.0009529232047498,-9.818559646606444,0,0,28.54275894165039,1,1,1000,1000,5.799346,0,0.0008639302104711
1778627320.199346,60404995,1,0.0008577737607993,0.000727730395738,0.0006633269367739,-0.002817949745804,-0.0015734552871435,-9.819061279296877,0,0,28.54275894165039,1,1,760,800,5.799346,0,0.0006633269367739
1778627320.23933,60444979,0,0.0007870972622185,0.0009040597360581,0.0007307411869987,-0.001433145487681,-0.0007306233164854,-9.81755828857422,0,0,28.544952392578125,1,1,1000,1000,5.83933,0,0.0007307411869987
1778627320.23933,60444979,1,0.000812362821307,0.0007849175017327,0.0008706196094863,-0.0029123683925718,0.0005381132941693,-9.815555572509766,0,0,28.544952392578125,1,1,760,800,5.83933,0,0.0008706196094863
1778627320.279314,60484963,0,0.00083341402933,0.0008379372884519,0.0008626717026345,0.0001138207444455,-0.0011686659418046,-9.817586898803713,0,0,28.54714584350586,1,1,1000,1000,5.879314,0,0.0008626717026345
1778627320.279314,60484963,1,0.0009339965181425,0.0008731958223506,0.0010153638431802,-0.00114896974992,-0.0011331617133691,-9.81989288330078,0,0,28.54714584350586,1,1,760,800,5.879314,0,0.0010153638431802
1778627320.319298,60524947,0,0.0008278318564407,0.0009442204609513,0.000844108290039,-0.0004381669568829,-0.0006219618953764,-9.818105697631836,0,0,28.549339294433597,1,1,1000,1000,5.919298,0,0.000844108290039
1778627320.319298,60524947,1,0.0008721873164176,0.000806984025985,0.0011872752802446,-0.0008903548005037,0.0002434456109767,-9.816699981689451,0,0,28.549339294433597,1,1,760,800,5.919298,0,0.0011872752802446
1778627320.359282,60564931,0,0.0008338324842043,0.0008351443102583,0.0008930629119277,-0.0016554903704673,-0.0010578427463769,-9.81686305999756,0,0,28.551532745361328,1,1,1000,1000,5.959282,0,0.0008930629119277
1778627320.359282,60564931,1,0.0007493270677514,0.0007382904877886,0.0009000366553664,-0.0006446907063946,-0.0026400671340525,-9.81661891937256,0,0,28.551532745361328,1,1,760,800,5.959282,0,0.0009000366553664
1778627320.399266,60604915,0,0.0008121863938868,0.0008948512258939,0.000893592601642,-0.0020313342101871,-0.001153368037194,-9.818405151367188,0,0,28.553726196289062,1,1,1000,1000,5.999266,0,0.000893592601642
1778627320.399266,60604915,1,0.0007991010788828,0.0008761347271502,0.0010312353260815,-0.0005998896667733,-0.0002650185488164,-9.818254470825195,0,0,28.553726196289062,1,1,760,800,5.999266,0,0.0010312353260815
1778627320.43925,60644899,0,0.0009021104197017,0.0007754988037049,0.0008205563062801,-0.0010946675902232,-0.0010637282393872,-9.816813468933104,0,0,28.5559196472168,1,1,1000,1000,6.03925,0,0.0008205563062801
1778627320.43925,60644899,1,0.0005501329433172,0.0008765156380832,0.001015986315906,-0.0017537482781335,-0.0040968433022499,-9.815954208374023,0,0,28.5559196472168,1,1,760,800,6.03925,0,0.001015986315906
1778627320.4792342,60684883,0,0.0008265440701507,0.0008724782965146,0.0007768309442326,-0.0017830913420766,-0.0018466396722942,-9.81663703918457,0,0,28.5581111907959,1,1,1000,1000,6.079234,0,0.0007768309442326
1778627320.4792342,60684883,1,0.0005538210389204,0.0003129742690362,0.0008079785620793,0.0001977223728317,-0.0012435169192031,-9.81602668762207,0,0,28.5581111907959,1,1,760,800,6.079234,0,0.0008079785620793
1778627320.5192182,60724867,0,0.00084427325055,0.0008631030214019,0.0008399409707635,-0.0011469303863123,-0.0005939189577475,-9.817611694335938,0,0,28.560302734375,1,1,1000,1000,6.119218,0,0.0008399409707635
1778627320.5192182,60724867,1,0.0009235605830326,0.0007461630157195,0.0006204274832271,0.0011827062116935,-0.0005500799743458,-9.815895080566406,0,0,28.560302734375,1,1,760,800,6.119218,0,0.0006204274832271
1778627320.559202,60764851,0,0.0008690530667081,0.0009476775885559,0.0008267660159617,-0.0010440511396154,-0.0017520982073619,-9.817989349365234,0,0,28.56249618530273,1,1,1000,1000,6.159202,0,0.0008267660159617
1778627320.559202,60764851,1,0.0006498369621112,0.0005826817359775,0.0010432009585201,-0.0002484450815245,-0.0007707939948886,-9.817771911621094,0,0,28.56249618530273,1,1,760,800,6.159202,0,0.0010432009585201
1778627320.599186,60804835,0,0.000821856665425,0.0008157141855917,0.0008001960231922,-0.0013314859243109,-0.0009685259428806,-9.819052696228027,0,0,28.564685821533203,1,1,1000,1000,6.199186,0,0.0008001960231922
1778627320.599186,60804835,1,0.0011240254389122,0.0006486976053565,0.0009458739077672,0.0011833724565804,-0.000960586941801,-9.81645679473877,0,0,28.564685821533203,1,1,760,800,6.199186,0,0.0009458739077672
1778627320.6400032,60845652,0,0.0008214181871153,0.0008656874997541,0.0008339057094417,-0.0016740758437663,-0.0010153765324503,-9.81706714630127,0,0,28.566932678222656,1,1,1000,1000,6.240003,0,0.0008339057094417
1778627320.6400032,60845652,1,0.0007888575782999,0.0008356283069588,0.0007866178639233,-0.0013297944096848,-0.0005359835922718,-9.817570686340332,0,0,28.566932678222656,1,1,760,800,6.240003,0,0.0007866178639233
1778627320.6799872,60885636,0,0.0008331475546583,0.0008128230692818,0.0008222163305617,-0.0018057420384138,-0.0009974191198125,-9.81796932220459,0,0,28.56912422180176,1,1,1000,1000,6.279987,0,0.0008222163305617
1778627320.6799872,60885636,1,0.0009143230854533,0.0008929520263336,0.0006235635373741,-0.0006638366030529,-0.000125435530208,-9.81769561767578,0,0,28.56912422180176,1,1,760,800,6.279987,0,0.0006235635373741
1778627320.7199712,60925620,0,0.0008911674958653,0.0008436461212113,0.0008904520072974,-0.0017874527256935,-0.0018096753628924,-9.81862449645996,0,0,28.57131576538086,1,1,1000,1000,6.319971,0,0.0008904520072974
1778627320.7199712,60925620,1,0.0009289547451771,0.0009080055169761,0.0011510357726365,-0.0004244005540385,-0.0007957469788379,-9.81879711151123,0,0,28.57131576538086,1,1,760,800,6.319971,0,0.0011510357726365
1778627320.7599552,60965604,0,0.0009773448109626,0.0008824655087664,0.0008453220361843,-0.0009093260159716,-0.0008353830198757,-9.816683769226074,0,0,28.573505401611328,1,1,1000,1000,6.359955,0,0.0008453220361843
1778627320.7599552,60965604,1,0.0008683886844664,0.0008624653564766,0.0009544546483084,-0.0005503501161001,-0.0003665707772597,-9.817413330078123,0,0,28.573505401611328,1,1,760,800,6.359955,0,0.0009544546483084
1778627320.7999392,61005588,0,0.0007993586477823,0.0008392472518607,0.0008082756539806,-0.0011507439194247,-0.0006500424351543,-9.817628860473633,0,0,28.5756950378418,1,1,1000,1000,6.399939,0,0.0008082756539806
1778627320.7999392,61005588,1,0.0010512772714719,0.0008490041363984,0.0008901412365958,0.0011388588463887,-0.0003952757688239,-9.81644058227539,0,0,28.5756950378418,1,1,760,800,6.399939,0,0.0008901412365958
1778627320.8399231,61045572,0,0.000858851824887,0.0008909214520826,0.0008783782832324,-0.0009342626435682,-0.0015307927969843,-9.817056655883787,0,0,28.577884674072266,1,1,1000,1000,6.439923,0,0.0008783782832324
1778627320.8399231,61045572,1,0.0007013698341324,0.0006988136447034,0.0009763545822352,-0.0009455494000576,-0.0007139348890632,-9.81912326812744,0,0,28.577884674072266,1,1,760,800,6.439923,0,0.0009763545822352
1778627320.8799071,61085556,0,0.0008704352076165,0.0008823872194625,0.0008249441161751,-0.0012333674822002,-0.0011863582767546,-9.818052291870115,0,0,28.58007431030273,1,1,1000,1000,6.479907,0,0.0008249441161751
1778627320.8799071,61085556,1,0.0010452395072206,0.0007557071512565,0.0007459274493157,-0.0010650702752172,-0.0007635038928128,-9.817079544067385,0,0,28.58007431030273,1,1,760,800,6.479907,0,0.0007459274493157
1778627320.919891,61125540,0,0.0008492653141729,0.0008076266385614,0.0008843360119499,-0.0014181090518832,-0.0010091005824506,-9.81759262084961,0,0,28.582263946533203,1,1,1000,1000,6.519891,0,0.0008843360119499
1778627320.919891,61125540,1,0.0008259682217612,0.0007422260241582,0.0009134846623055,-0.0021457425318658,-0.0017835819162428,-9.817496299743652,0,0,28.582263946533203,1,1,760,800,6.519891,0,0.0009134846623055
1778627320.959875,61165524,0,0.0008215122506953,0.0009079072042368,0.0009138575405813,-0.0008620801381766,-0.0020849911961704,-9.817102432250977,0,0,28.58445167541504,1,1,1000,1000,6.559875,0,0.0009138575405813
1778627320.959875,61165524,1,0.0007436778396368,0.0007576691568829,0.0007132568280212,0.0021327910944819,0.0006968142697587,-9.816081047058104,0,0,28.58445167541504,1,1,760,800,6.559875,0,0.0007132568280212
1778627320.999859,61205508,0,0.0007861979538574,0.0008963023428805,0.0008713319548405,-0.0003654690517578,-0.0007075266330502,-9.81785774230957,0,0,28.586639404296875,1,1,1000,1000,6.599859,0,0.0008713319548405
1778627320.999859,61205508,1,0.000863344001118,0.0008022167021408,0.0010944232344627,-0.0021667806431651,-0.0005707005038857,-9.819510459899902,0,0,28.586639404296875,1,1,760,800,6.599859,0,0.0010944232344627
1778627321.039843,61245492,0,0.000902236031834,0.0009200499625876,0.0008770260028541,-0.0004905582754872,-0.0013220782857388,-9.816688537597656,0,0,28.588829040527344,1,1,1000,1000,6.639843,0,0.0008770260028541
1778627321.039843,61245492,1,0.0008624008623883,0.0009679155191406,0.0006203287630341,-0.0029236099217087,-0.0001151313772425,-9.81716537475586,0,0,28.588829040527344,1,1,760,800,6.639843,0,0.0006203287630341
1778627321.079827,61285476,0,0.0007608557934872,0.0008366117835976,0.0007681721472181,-0.0005987734766677,-0.0006509298691526,-9.817699432373049,0,0,28.59101676940918,1,1,1000,1000,6.679827,0,0.0007681721472181
1778627321.079827,61285476,1,0.0008627218194305,0.0007667477475479,0.0009424369200132,0.0004342294996604,0.0005397525965236,-9.818230628967283,0,0,28.59096336364746,1,1,760,800,6.679827,0,0.0009424369200132
1778627321.119811,61325460,0,0.0009604422375559,0.0008314527221955,0.0007794218836352,-0.000603710708674,-0.0003574803704395,-9.818053245544434,0,0,28.593204498291016,1,1,1000,1000,6.719811,0,0.0007794218836352
1778627321.119811,61325460,1,0.0007098677451722,0.0009981193579733,0.0011928786989301,0.0011658110888674,-0.0013705044984817,-9.81581687927246,0,0,28.593151092529297,1,1,760,800,6.719811,0,0.0011928786989301
1778627321.159795,61365444,0,0.0008550837519578,0.0008635025587864,0.0008210446685552,-0.0010041270870715,-0.0024861062411218,-9.816898345947266,0,0,28.59539222717285,1,1,1000,1000,6.759795,0,0.0008210446685552
1778627321.159795,61365444,1,0.0007278703851625,0.0008671964169479,0.0007413905696012,-0.00224120169878,-0.0011101068230345,-9.821165084838867,0,0,28.5953369140625,1,1,760,800,6.759795,0,0.0007413905696012
1778627321.199779,61405428,0,0.0009251730516552,0.0008048177696764,0.0009287857683375,-0.0016892120474949,-0.0011044148122891,-9.817200660705566,0,0,28.597579956054688,1,1,1000,1000,6.799779,0,0.0009287857683375
1778627321.199779,61405428,1,0.0008537780377082,0.0007086126133799,0.0009785677539184,-0.00120746192988,0.000771994178649,-9.816679000854492,0,0,28.597524642944336,1,1,760,800,6.799779,0,0.0009785677539184
1778627321.239763,61445412,0,0.0008515696390531,0.0008629678050056,0.0008350632851943,-0.0017874328186735,-0.0006688889698125,-9.817998886108398,0,0,28.59976577758789,1,1,1000,1000,6.839763,0,0.0008350632851943
1778627321.239763,61445412,1,0.0007663777796551,0.0007959939539432,0.0008796732872724,-0.0013776266714558,0.0016369391232728,-9.81653881072998,0,0,28.59971237182617,1,1,760,800,6.839763,0,0.0008796732872724
1778627321.279747,61485396,0,0.0008451847243122,0.0008598734275437,0.0008501224801875,-0.0016992121236398,-2.517679786251392e-05,-9.818184852600098,0,0,28.601953506469727,1,1,1000,1000,6.879747,0,0.0008501224801875
1778627321.279747,61485396,1,0.0008926519658416,0.001070677768439,0.0008363618981093,-0.0005623577162623,-0.0019679726101458,-9.81926155090332,0,0,28.60189819335937,1,1,760,800,6.879747,0,0.0008363618981093
1778627321.319731,61525380,0,0.0008788582636043,0.0009129798854701,0.0008359894854947,-0.00157446868252,-0.0002248028758913,-9.816917419433594,0,0,28.60413932800293,1,1,1000,1000,6.919731,0,0.0008359894854947
1778627321.319731,61525380,1,0.0007301066070795,0.0009131808183155,0.0007879273034632,-0.0018840567208826,-0.0015819848049432,-9.817293167114258,0,0,28.604084014892575,1,1,760,800,6.919731,0,0.0007879273034632
1778627321.3597147,61565364,0,0.0008483084384351,0.000845311966259,0.0008799203205853,-0.0007680613780394,-0.0012367073213681,-9.816980361938477,0,0,28.6063232421875,1,1,1000,1000,6.959715,0,0.0008799203205853
1778627321.3597147,61565364,1,0.0009604780934751,0.0008096118108369,0.0009611378773115,-0.0004981338861398,-0.0003406166215427,-9.816431045532228,0,0,28.60626983642578,1,1,760,800,6.959715,0,0.0009611378773115
1778627321.3996992,61605348,0,0.0008699054596945,0.0009054954280145,0.0008700469625182,-0.0010458790929988,-0.0011598424753174,-9.81690502166748,0,0,28.608510971069336,1,1,1000,1000,6.999699,0,0.0008700469625182
1778627321.3996992,61605348,1,0.0010019231121987,0.0008232435211539,0.0008841049857437,-0.0032371517736464,0.0009118898888118,-9.819520950317385,0,0,28.608455657958984,1,1,760,800,6.999699,0,0.0008841049857437
1778627321.4396832,61645332,0,0.000857573817484,0.0008547064498998,0.0008651396492496,-0.0008682155166752,-0.0006199188064783,-9.817805290222168,0,0,28.610694885253903,1,1,1000,1000,7.039683,0,0.0008651396492496
1778627321.4396832,61645332,1,0.000826942094136,0.0008694494608789,0.0007844466017559,-0.0026177605614066,-0.0012661651708185,-9.817944526672363,0,0,28.610641479492188,1,1,760,800,7.039683,0,0.0007844466017559
1778627321.4796672,61685316,0,0.0008765924139879,0.0008416082710027,0.0008361389045603,-0.0006055083940736,-0.0007191411568783,-9.81858730316162,0,0,28.61288070678711,1,1,1000,1000,7.079667,0,0.0008361389045603
1778627321.4796672,61685316,1,0.0009553036070428,0.0009365105070173,0.0007739790016785,-0.0009623514488339,-0.0021135325077921,-9.81794548034668,0,0,28.61282730102539,1,1,760,800,7.079667,0,0.0007739790016785
1778627321.5196512,61725300,0,0.000855989055708,0.0008162809535861,0.0009145288495346,-0.0011690387036651,-0.0010355272097513,-9.817733764648438,0,0,28.615066528320312,1,1,1000,1000,7.119651,0,0.0009145288495346
1778627321.5196512,61725300,1,0.0008414896437898,0.0010019609471783,0.0010014661820605,-0.0028033596463501,-0.0004109234432689,-9.81879711151123,0,0,28.61501121520996,1,1,760,800,7.119651,0,0.0010014661820605
1778627321.5596352,61765284,0,0.0009102743351832,0.000865637906827,0.000843325862661,-0.0014806194230914,-0.0006286012358032,-9.816539764404297,0,0,28.617250442504883,1,1,1000,1000,7.159635,0,0.000843325862661
1778627321.5596352,61765284,1,0.0010140257654711,0.0007109689177013,0.00101817806717,-0.0019855103455483,0.0020165063906461,-9.815658569335938,0,0,28.61719512939453,1,1,760,800,7.159635,0,0.00101817806717
1778627321.5996192,61805268,0,0.0008826309349387,0.0009125090437009,0.0008713433053344,-0.001640748232603,-0.0012093097902834,-9.817784309387209,0,0,28.619434356689453,1,1,1000,1000,7.199619,0,0.0008713433053344
1778627321.5996192,61805268,1,0.0007591348839923,0.000964056525845,0.0009674757602624,0.0003286352148279,-0.0014007405843585,-9.817198753356934,0,0,28.61938095092773,1,1,760,800,7.199619,0,0.0009674757602624
1778627321.6396031,61845252,0,0.0008651737589389,0.000903989537619,0.0008668996742926,-0.001454101759009,0.0001182710548164,-9.816822052001951,0,0,28.621618270874023,1,1,1000,1000,7.239603,0,0.0008668996742926
1778627321.6396031,61845252,1,0.0008545825839973,0.000815265928395,0.0008681460167281,-0.0014732198324054,-0.0004224834847263,-9.815730094909668,0,0,28.621562957763672,1,1,760,800,7.239603,0,0.0008681460167281
1778627321.6795871,61885236,0,0.0009485904010944,0.000871866941452,0.0007962853997014,-0.0023842486552894,-0.0005950612830929,-9.817968368530272,0,0,28.623802185058597,1,1,1000,1000,7.279587,0,0.0007962853997014
1778627321.6795871,61885236,1,0.0007236499222926,0.0008998542325571,0.0009478915017098,-0.0015913381939753,0.0006085385102778,-9.81590461730957,0,0,28.623748779296875,1,1,760,800,7.279587,0,0.0009478915017098
1778627321.719571,61925220,0,0.0008585745235905,0.0008287456585094,0.0009175145532935,-0.0005428890581242,-0.0019021132029592,-9.817789077758787,0,0,28.62593078613281,1,1,1000,1000,7.319571,0,0.0009175145532935
1778627321.719571,61925220,1,0.0006739132804796,0.0008329366100952,0.0009078488219529,-0.001972711412236,-0.000492604332976,-9.81502628326416,0,0,28.62593078613281,1,1,760,800,7.319571,0,0.0009078488219529
1778627321.759555,61965204,0,0.0008011509780772,0.0008395814220421,0.0008371345466002,-0.0009587265667505,-0.0004740398726426,-9.818117141723633,0,0,28.628114700317383,1,1,1000,1000,7.359555,0,0.0008371345466002
1778627321.759555,61965204,1,0.0008245209464803,0.0008149411878548,0.0010200226679444,0.0009689875878393,0.0006647828267887,-9.81748867034912,0,0,28.628114700317383,1,1,760,800,7.359555,0,0.0010200226679444
1778627321.799539,62005188,0,0.0008088569156825,0.0008439914090558,0.000885471701622,6.478527211584151e-05,-0.0004817161243408,-9.81813144683838,0,0,28.63029670715332,1,1,1000,1000,7.399539,0,0.000885471701622
1778627321.799539,62005188,1,0.0007904607336968,0.0009400791605003,0.0008165737963281,0.001817756332457,-0.0029268208891153,-9.817344665527344,0,0,28.63029670715332,1,1,760,800,7.399539,0,0.0008165737963281
1778627321.839523,62045172,0,0.0008915367652662,0.0008627246133983,0.0009047238272614,-0.0006006007897667,-0.0007854247232899,-9.816913604736328,0,0,28.632478713989254,1,1,1000,1000,7.439523,0,0.0009047238272614
1778627321.839523,62045172,1,0.0008291541598737,0.0008359829080291,0.0010063902009278,0.0013927507679909,-0.0010058267507702,-9.81540298461914,0,0,28.632478713989254,1,1,760,800,7.439523,0,0.0010063902009278
1778627321.879507,62085156,0,0.0008440734818577,0.0009006831096485,0.0008700077887624,-0.0008702147752046,-0.0015693535096943,-9.817445755004885,0,0,28.634660720825195,1,1,1000,1000,7.479507,0,0.0008700077887624
1778627321.879507,62085156,1,0.0009486901108175,0.0008386756526306,0.0008055360522121,0.0004286976181901,-0.0018674506573006,-9.82048511505127,0,0,28.634660720825195,1,1,760,800,7.479507,0,0.0008055360522121
1778627321.919491,62125140,0,0.0008463497506454,0.0008976871031336,0.0008487054728902,-0.0004219840047881,-0.0007529796566814,-9.816824913024902,0,0,28.636842727661133,1,1,1000,1000,7.519491,0,0.0008487054728902
1778627321.919491,62125140,1,0.0008081709966063,0.0007657596142962,0.0008907768060453,-0.0014281691983342,-0.0003035582776647,-9.815031051635742,0,0,28.636842727661133,1,1,760,800,7.519491,0,0.0008907768060453
1778627321.959475,62165124,0,0.0008673449046909,0.0009132818086072,0.0008536654058843,-0.0013495357707142,-0.001032171305269,-9.817320823669434,0,0,28.63902473449707,1,1,1000,1000,7.559475,0,0.0008536654058843
1778627321.959475,62165124,1,0.0010038542095571,0.0009187527466565,0.0008264788193628,-0.0015110913664102,-0.0014614866813644,-9.818830490112305,0,0,28.63902473449707,1,1,760,800,7.559475,0,0.0008264788193628
1778627321.999459,62205108,0,0.0008665509521961,0.0009030592627823,0.0008451730245724,-0.000248019961873,-0.0005844627739861,-9.817996978759766,0,0,28.641206741333008,1,1,1000,1000,7.599459,0,0.0008451730245724
1778627321.999459,62205108,1,0.0009949415689334,0.0008725506486371,0.0009972429834306,-0.001176931662485,0.0016193048795685,-9.817875862121582,0,0,28.641206741333008,1,1,760,800,7.599459,0,0.0009972429834306
1778627322.039443,62245092,0,0.0008460457320325,0.0008568096091039,0.0008873225888237,-0.0004134016635362,-0.0009010753128677,-9.816949844360352,0,0,28.643386840820312,1,1,1000,1000,7.639443,0,0.0008873225888237
1778627322.039443,62245092,1,0.0010308499913662,0.0008642822504043,0.0008948422619141,0.0003160554333589,-0.0010304417228326,-9.81768798828125,0,0,28.643386840820312,1,1,760,800,7.639443,0,0.0008948422619141
1778627322.079427,62285076,0,0.0008759593474678,0.0008715619915165,0.0008570356294512,-0.0015057674609124,-0.0010195220820605,-9.81686782836914,0,0,28.64556884765625,1,1,1000,1000,7.679427,0,0.0008570356294512
1778627322.079427,62285076,1,0.0009321804973296,0.0007530997390858,0.0008483923738822,-0.0003489952068775,0.0005191068630665,-9.816811561584473,0,0,28.64556884765625,1,1,760,800,7.679427,0,0.0008483923738822
1778627322.1194108,62325060,0,0.000915834098123,0.0008280742331407,0.0008768588886596,-0.0005008617881685,-0.0012806407175958,-9.879638671875,0,0,28.647802352905277,1,1,1000,1000,7.719411,0,0.0008768588886596
1778627322.1194108,62325060,1,0.0010688647162169,0.0008586165495216,0.000811158621218,-0.0003967368975281,-0.0012474096147343,-9.880613327026367,0,0,28.647802352905277,1,1,760,800,7.719411,0,0.000811158621218
1778627322.1593952,62365044,0,0.0008510250481776,0.0008805095567367,0.0008420872618444,-0.0008688581292517,-0.00212371814996,-10.406387329101562,0,0,28.649982452392575,1,1,1000,1000,7.759395,0,0.0008420872618444
1778627322.1593952,62365044,1,0.0008137569529935,0.0007909892592579,0.0010133425239473,-0.0002954512601718,-0.0006148322136141,-10.410684585571287,0,0,28.649982452392575,1,1,760,800,7.759395,0,0.0010133425239473
1778627322.1993792,62405028,0,0.0008797884802334,0.0008670468232594,0.0008925474830903,-0.0011502428678795,-0.0014725099317729,-10.435174942016602,0,0,28.652162551879883,1,1,1000,1000,7.799379,0,0.0008925474830903
1778627322.1993792,62405028,1,0.0009617066243663,0.0008657349389977,0.000869428331498,0.0005151484510861,0.0004676064127124,-10.436480522155762,0,0,28.652162551879883,1,1,760,800,7.799379,0,0.000869428331498
1778627322.2393632,62445012,0,0.0008966429159045,0.0008663245243951,0.0008722010534256,-0.0011251558316871,-0.0013551475713029,-10.358043670654297,0,0,28.654342651367188,1,1,1000,1000,7.839363,0,0.0008722010534256
1778627322.2393632,62445012,1,0.0006767110317014,0.0008853321196511,0.0008911036420613,-0.0013404467608779,-0.0012440048158168,-10.35802936553955,0,0,28.654342651367188,1,1,760,800,7.839363,0,0.0008911036420613
1778627322.2793472,62484996,0,0.0008905503200367,0.0008944419096224,0.0008805005345493,-0.0015187985263764,-0.0002383686223765,-10.394536018371582,0,0,28.65646743774414,1,1,1000,1000,7.879347,0,0.0008805005345493
1778627322.2793472,62484996,1,0.0008507117163389,0.0009487616480328,0.0009582444326952,-0.0015717868227511,-0.0021496289409697,-10.392789840698242,0,0,28.65646743774414,1,1,760,800,7.879347,0,0.0009582444326952
1778627322.3193312,62524980,0,0.0008845129632391,0.0008518258109688,0.0008675482240505,-0.0006581885390914,-0.0008822086383588,-10.396860122680664,0,0,28.65864562988281,1,1,1000,1000,7.919331,0,0.0008675482240505
1778627322.3193312,62524980,1,0.0009676695335656,0.0009279655641876,0.0010899464832618,-0.0005772639997303,-0.0028933081775903,-10.396418571472168,0,0,28.65864562988281,1,1,760,800,7.919331,0,0.0010899464832618
1778627322.3593152,62564964,0,0.0009208535193465,0.0008832610910758,0.000874595309142,-0.0009967780206352,-0.0011717732995748,-10.367713928222656,0,0,28.66082572937012,1,1,1000,1000,7.959315,0,0.000874595309142
1778627322.3593152,62564964,1,0.0008669965318404,0.0009520304738543,0.0008965992601588,-0.0003776682715397,-0.0009301757672801,-10.367332458496094,0,0,28.66082572937012,1,1,760,800,7.959315,0,0.0008965992601588
1778627322.3992991,62604948,0,0.000848239287734,0.0008544732118025,0.0008771227439865,-0.0014062828850001,-0.0013538899365812,-10.346723556518556,0,0,28.66300392150879,1,1,1000,1000,7.999299,0,0.0008771227439865
1778627322.3992991,62604948,1,0.0006800166447646,0.0007483980152755,0.0009345655562356,-0.0039878641255199,0.0009086438221856,-10.347370147705078,0,0,28.66300392150879,1,1,760,800,7.999299,0,0.0009345655562356
1778627322.4392831,62644932,0,0.0009281659731641,0.0008572385995648,0.0008926216978579,-0.0010407846421003,-0.0013865389628335,-10.339588165283203,0,0,28.66518211364746,1,1,1000,1000,8.039283,0,0.0008926216978579
1778627322.4392831,62644932,1,0.000999902607873,0.00090289657237,0.0009351292392238,-0.000228116652579,-0.0003047501959372,-10.337669372558594,0,0,28.66518211364746,1,1,760,800,8.039283,0,0.0009351292392238
1778627322.4792671,62684916,0,0.0008366703987121,0.0008614674443379,0.0008860089583322,-0.001907967031002,-0.0007375930435955,-10.340929985046388,0,0,28.6673583984375,1,1,1000,1000,8.079267,0,0.0008860089583322
1778627322.4792671,62684916,1,0.0007825014181435,0.0006750136381015,0.0008091526688076,0.0001860685151768,-0.0038534291088581,-10.342334747314451,0,0,28.6673583984375,1,1,760,800,8.079267,0,0.0008091526688076
1778627322.519251,62724900,0,0.0008741633500903,0.000882048276253,0.0009319470264017,-0.0010753286769613,-0.0018975025741383,-10.351849555969238,0,0,28.66953659057617,1,1,1000,1000,8.119251,0,0.0009319470264017
1778627322.519251,62724900,1,0.000944347702898,0.0007486953982152,0.0009599403128959,-0.0017587064066901,-0.0003251135349273,-10.352493286132812,0,0,28.66953659057617,1,1,760,800,8.119251,0,0.0009599403128959
1778627322.559235,62764884,0,0.0008917894447222,0.0008388173882849,0.0008722624043002,-0.0011858458165079,-0.0006528298836201,-10.362290382385254,0,0,28.671714782714844,1,1,1000,1000,8.159235,0,0.0008722624043002
1778627322.559235,62764884,1,0.000820908055175,0.0010737858247011,0.0007892758003436,-0.0035041742958128,-0.0013244570000097,-10.364646911621094,0,0,28.671714782714844,1,1,760,800,8.159235,0,0.0007892758003436
1778627322.599219,62804868,0,0.0008673762204125,0.0008372269803658,0.0008792706648819,-0.0005742711364291,-0.0003035111585631,-10.378670692443848,0,0,28.673891067504883,1,1,1000,1000,8.199219,0,0.0008792706648819
1778627322.599219,62804868,1,0.0008927731541916,0.0008452571346424,0.0009818711550906,-0.0026372978463768,-0.0003931423416361,-10.380760192871094,0,0,28.673891067504883,1,1,760,800,8.199219,0,0.0009818711550906
1778627322.639203,62844852,0,0.0008490258478559,0.0008646861533634,0.0008362054359167,-0.0013540190411731,-0.0019543590024113,-10.393988609313965,0,0,28.67606735229492,1,1,1000,1000,8.239203,0,0.0008362054359167
1778627322.639203,62844852,1,0.0008146210457198,0.000820608169306,0.0010145863052457,-0.0029313303530216,0.0004380980681162,-10.395283699035645,0,0,28.67606735229492,1,1,760,800,8.239203,0,0.0010145863052457
1778627322.679187,62884836,0,0.0008824197575449,0.0008447692380286,0.0008665469358675,-0.0014499545795843,-0.0021773076150566,-10.411825180053713,0,0,28.67824363708496,1,1,1000,1000,8.279187,0,0.0008665469358675
1778627322.679187,62884836,1,0.0009771271143108,0.0009451456135138,0.0010877988534048,0.0014588314807042,0.0008898927480913,-10.41326141357422,0,0,28.67824363708496,1,1,760,800,8.279187,0,0.0010877988534048
1778627322.720004,62925653,0,0.0008428227738477,0.0008424159022979,0.0008538023103028,-0.0010391668183729,-0.0018159375758841,-10.426219940185549,0,0,28.68047523498535,1,1,1000,1000,8.320004,0,0.0008538023103028
1778627322.720004,62925653,1,0.0007555539486929,0.0006924608023837,0.000688652973622,-0.0018542440375313,-0.0009608301916159,-10.428241729736328,0,0,28.68047523498535,1,1,760,800,8.320004,0,0.000688652973622
1778627322.759988,62965637,0,0.0009079192532226,0.0008956206729635,0.0008413160685449,-0.0012682594824582,-0.0007664869190193,-10.444554328918455,0,0,28.68264961242676,1,1,1000,1000,8.359988,0,0.0008413160685449
1778627322.759988,62965637,1,0.000811033998616,0.0009689949220046,0.0008156569674611,-0.0020759289618581,-0.0012625870294868,-10.438074111938477,0,0,28.68264961242676,1,1,760,800,8.359988,0,0.0008156569674611
1778627322.799972,63005621,0,-0.0286556538194417,-0.0271100252866745,0.0011631781235337,-0.0008070827461779,-0.0008388699498027,-12.850823402404783,0,0,28.6848258972168,1,1,1000,1000,8.399972,0,0.0011631781235337
1778627322.799972,63005621,1,-0.0286062490195035,-0.0271953921765089,0.0010257016401737,-0.0041552800685167,-0.0034066992811858,-12.874122619628906,0,0,28.6848258972168,1,1,760,800,8.399972,0,0.0010257016401737
1778627322.839956,63045605,0,-0.0309274811297655,-0.0313881933689117,0.0015287422575056,-0.0050395266152918,0.002081349492073,-15.09296989440918,0,0,28.68700218200684,1,1,1000,1000,8.439956,0,0.0015287422575056
1778627322.839956,63045605,1,-0.0306157618761062,-0.0311895012855529,0.0016175587661564,-0.0047843195497989,0.0046270224265754,-15.12155055999756,0,0,28.68700218200684,1,1,760,800,8.439956,0,0.0016175587661564
1778627322.87994,63085589,0,-0.0298996083438396,-0.0295749213546514,0.0018988272640854,-0.011272095143795,0.0102231549099087,-14.824108123779297,0,0,28.68917655944824,1,1,1000,1000,8.47994,0,0.0018988272640854
1778627322.87994,63085589,1,-0.0300001893192529,-0.0295984502881765,0.0019142805831506,-0.0146768614649772,0.0103110531345009,-14.84730625152588,0,0,28.68917655944824,1,1,760,800,8.47994,0,0.0019142805831506
1778627322.919924,63125573,0,-0.0273861810564994,-0.026081908494234,0.0022367173805832,-0.0203510485589504,0.0193082392215728,-13.786237716674805,0,0,28.69135093688965,1,1,1000,1000,8.519924,0,0.0022367173805832
1778627322.919924,63125573,1,-0.0273043252527713,-0.0261504147201776,0.0022128974087536,-0.0183980874717235,0.0183767098933458,-13.801332473754885,0,0,28.69135093688965,1,1,760,800,8.519924,0,0.0022128974087536
1778627322.959908,63165557,0,-0.0225994568318128,-0.0220489855855703,0.0022635525092482,-0.0248671285808086,0.0218822676688432,-12.566488265991213,0,0,28.69352531433105,1,1,1000,1000,8.559908,0,0.0022635525092482
1778627322.959908,63165557,1,-0.0226316731423139,-0.0221740007400512,0.0023436634801328,-0.0215914901345968,0.0235288143157959,-12.572528839111328,0,0,28.69352531433105,1,1,760,800,8.559908,0,0.0023436634801328
1778627322.999892,63205541,0,-0.01706313341856,-0.0161557011306285,0.0022907734382897,-0.0246024839580059,0.0220330208539962,-11.39773654937744,0,0,28.69569969177246,1,1,1000,1000,8.599892,0,0.0022907734382897
1778627322.999892,63205541,1,-0.0171098001301288,-0.016114043071866,0.0023441936355084,-0.0246165432035923,0.0213162992149591,-11.399086952209473,0,0,28.69569969177246,1,1,760,800,8.599892,0,0.0023441936355084
1778627323.039876,63245525,0,-0.0110910031944513,-0.0108998361974954,0.0024112868122756,-0.0196936056017875,0.0176127552986145,-10.438959121704102,0,0,28.697874069213867,1,1,1000,1000,8.639876,0,0.0024112868122756
1778627323.039876,63245525,1,-0.0112348282709717,-0.0111272260546684,0.0025100677739828,-0.0197910778224468,0.0165106691420078,-10.434826850891112,0,0,28.697874069213867,1,1,760,800,8.639876,0,0.0025100677739828
1778627323.0798602,63285509,0,-0.0057698800228536,-0.007200754713267,0.0024061037693172,-0.0145354615524411,0.0125059047713875,-9.753181457519531,0,0,28.70004653930664,1,1,1000,1000,8.67986,0,0.0024061037693172
1778627323.0798602,63285509,1,-0.0056119514629244,-0.0072552850469946,0.0023351248819381,-0.0141239203512668,0.0142081715166568,-9.746976852416992,0,0,28.70004653930664,1,1,760,800,8.67986,0,0.0023351248819381
1778627323.1198442,63325493,0,-0.0011455639032647,-0.0009972482221201,0.0023644054308533,-0.0082256589084863,0.0072079733945429,-9.360264778137209,0,0,28.70221900939941,1,1,1000,1000,8.719844,0,0.0023644054308533
1778627323.1198442,63325493,1,-0.0012131627881899,-0.0009921807795763,0.0022587471175938,-0.0101150106638669,0.0071080257184803,-9.354758262634276,0,0,28.70221900939941,1,1,760,800,8.719844,0,0.0022587471175938
1778627323.159828,63365477,0,0.0033382805995643,0.002833715872839,0.0022778674028813,-0.0044174557551741,0.0012249486753717,-9.21315574645996,0,0,28.70439338684082,1,1,1000,1000,8.759828,0,0.0022778674028813
1778627323.159828,63365477,1,0.0032135054934769,0.0026938572991639,0.0023177023977041,-0.0050476458854973,-0.0008712175767868,-9.21468734741211,0,0,28.70433807373047,1,1,760,800,8.759828,0,0.0023177023977041
1778627323.199812,63405461,0,0.0050459150224924,0.0058201416395604,0.0022153521422296,-0.0001402420166414,-0.0006486974307335,-9.259376525878906,0,0,28.706565856933597,1,1,1000,1000,8.799812,0,0.0022153521422296
1778627323.199812,63405461,1,0.0050333118997514,0.0058694528415799,0.0024161804467439,-0.0014499735552817,6.63226455799304e-06,-9.259889602661133,0,0,28.70651054382324,1,1,760,800,8.799812,0,0.0024161804467439
1778627323.239796,63445445,0,0.0102308932691812,0.0100477645173668,0.0021445732563734,0.0005121399881318,-0.0021046479232609,-9.439419746398926,0,0,28.70873641967773,1,1,1000,1000,8.839796,0,0.0021445732563734
1778627323.239796,63445445,1,0.0102168414741754,0.0101603213697671,0.0022290425840765,-0.0008720210171304,-0.0018723484827205,-9.443597793579102,0,0,28.708683013916016,1,1,760,800,8.839796,0,0.0022290425840765
1778627323.27978,63485429,0,0.0128368679434061,0.0124176740646362,0.0020208796486258,-0.0004378376761451,-0.0019393386319279,-9.689661026000977,0,0,28.710908889770508,1,1,1000,1000,8.87978,0,0.0020208796486258
1778627323.27978,63485429,1,0.012904705479741,0.0123486863449215,0.0020524298306554,0.0001564355916343,-0.0016212472692131,-9.687071800231934,0,0,28.71085548400879,1,1,760,800,8.87978,0,0.0020524298306554
1778627323.319764,63525413,0,0.0154300834983587,0.0148744545876979,0.0020047761499881,-0.0013572733150795,-0.0005812383606098,-9.963360786437988,0,0,28.71308135986328,1,1,1000,1000,8.919764,0,0.0020047761499881
1778627323.319764,63525413,1,0.0153257148340344,0.014742056839168,0.0021625116933137,-0.00307856220752,0.0006890108343213,-9.958723068237305,0,0,28.71302795410156,1,1,760,800,8.919764,0,0.0021625116933137
1778627323.359748,63565397,0,0.0184196624904871,0.0165714956820011,0.0019289754563942,-0.002939065452665,0.0015091482782736,-10.218914031982422,0,0,28.715251922607425,1,1,1000,1000,8.959748,0,0.0019289754563942
1778627323.359748,63565397,1,0.0184204205870628,0.016650078818202,0.0018082705792039,-0.0045814705081284,0.003151694079861,-10.217399597167969,0,0,28.715198516845703,1,1,760,800,8.959748,0,0.0018082705792039
1778627323.399732,63605381,0,0.0179068185389041,0.0164224375039339,0.0018664964009076,-0.0041329227387905,0.0019794884137809,-10.44019889831543,0,0,28.717424392700195,1,1,1000,1000,8.999732,0,0.0018664964009076
1778627323.399732,63605381,1,0.0178208239376544,0.0164051502943038,0.0018719241488724,-0.0016254753572866,0.0044579268433153,-10.43603515625,0,0,28.717369079589844,1,1,760,800,8.999732,0,0.0018719241488724
1778627323.439716,63645365,0,0.0198564678430557,0.017280738800764,0.0018328152364119,-0.0050941798835992,0.0040541179478168,-10.619162559509276,0,0,28.719594955444336,1,1,1000,1000,9.039716,0,0.0018328152364119
1778627323.439716,63645365,1,0.0198113471269607,0.0174503866583108,0.0018654579762369,-0.0077945310622453,0.0038158246316015,-10.61677360534668,0,0,28.719541549682617,1,1,760,800,9.039716,0,0.0018654579762369
1778627323.4797,63685349,0,0.0198850240558385,0.0179345272481441,0.0017781233182176,-0.0082467393949627,0.006023387890309,-10.72344207763672,0,0,28.72176551818848,1,1,1000,1000,9.0797,0,0.0017781233182176
1778627323.4797,63685349,1,0.0199609603732824,0.0180163960903882,0.0017306725494563,-0.0075108120217919,0.0057454700581729,-10.722370147705078,0,0,28.721710205078125,1,1,760,800,9.0797,0,0.0017306725494563
1778627323.519684,63725333,0,0.0171421561390161,0.0194069426506757,0.0017743752105161,-0.0088678849861025,0.0068913055583834,-10.797805786132812,0,0,28.723936080932617,1,1,1000,1000,9.119684,0,0.0017743752105161
1778627323.519684,63725333,1,0.0171888470649719,0.0195486322045326,0.0017217554850503,-0.0084499446675181,0.0058332169428467,-10.793946266174316,0,0,28.723880767822266,1,1,760,800,9.119684,0,0.0017217554850503
1778627323.559668,63765317,0,0.0172281265258789,0.0141404382884502,0.0017502852715551,-0.0081993695348501,0.0069259810261428,-10.83298110961914,0,0,28.726104736328125,1,1,1000,1000,9.159668,0,0.0017502852715551
1778627323.559668,63765317,1,0.0172348823398351,0.0140861850231885,0.0017350725829601,-0.0084870103746652,0.0068554603494703,-10.832374572753906,0,0,28.726051330566406,1,1,760,800,9.159668,0,0.0017350725829601
1778627323.599652,63805301,0,0.0152288638055324,0.0138376178219914,0.0017236096318811,-0.0094978930428624,0.0080383578315377,-10.857551574707031,0,0,28.728275299072266,1,1,1000,1000,9.199652,0,0.0017236096318811
1778627323.599652,63805301,1,0.015296097844839,0.0136412661522626,0.0017172908410429,-0.0101943556219339,0.0093455221503973,-10.856916427612305,0,0,28.728219985961918,1,1,760,800,9.199652,0,0.0017172908410429
1778627323.639636,63845285,0,0.0136483293026685,0.0113274538889527,0.0016503867227584,-0.0096910316497087,0.0062641813419759,-10.83620262145996,0,0,28.730445861816406,1,1,1000,1000,9.239636,0,0.0016503867227584
1778627323.639636,63845285,1,0.0135566815733909,0.0112449917942285,0.0016277076210826,-0.0079114846885204,0.0072104623541235,-10.836304664611816,0,0,28.73039054870605,1,1,760,800,9.239636,0,0.0016277076210826
1778627323.67962,63885269,0,0.0121489400044083,0.0127065274864435,0.0015140096656978,-0.009601536206901,0.0071058394387364,-10.828959465026855,0,0,28.73261260986328,1,1,1000,1000,9.27962,0,0.0015140096656978
1778627323.67962,63885269,1,0.0119871478527784,0.0127154132351279,0.0017743102507665,-0.0106143373996019,0.0086953090503811,-10.833231925964355,0,0,28.73255920410156,1,1,760,800,9.27962,0,0.0017743102507665
1778627323.719604,63925253,0,0.0094615258276462,0.0092438943684101,0.0015773746417835,-0.0096008013933897,0.0076033174991607,-10.824014663696287,0,0,28.734783172607425,1,1,1000,1000,9.319604,0,0.0015773746417835
1778627323.719604,63925253,1,0.0094978548586368,0.0091574862599372,0.0014418859500437,-0.0106834517791867,0.0062040258198976,-10.823867797851562,0,0,28.73472785949707,1,1,760,800,9.319604,0,0.0014418859500437
1778627323.759588,63965237,0,0.0100749721750617,0.0115729635581374,0.0014050942845642,-0.0102573996409773,0.0094914631918072,-10.806861877441406,0,0,28.73695182800293,1,1,1000,1000,9.359588,0,0.0014050942845642
1778627323.759588,63965237,1,0.0100065348669886,0.0116894356906414,0.001210831454955,-0.0113736931234598,0.0080942427739501,-10.806869506835938,0,0,28.736896514892575,1,1,760,800,9.359588,0,0.001210831454955
1778627323.799572,64005221,0,0.0076367324218153,0.0093078594654798,0.0013739145360887,-0.0098728686571121,0.0073369145393371,-10.800540924072266,0,0,28.73906517028809,1,1,1000,1000,9.399572,0,0.0013739145360887
1778627323.799572,64005221,1,0.0075636669062078,0.0090840719640254,0.00119618489407,-0.0072067575529217,0.0080798286944627,-10.802325248718262,0,0,28.73906517028809,1,1,760,800,9.399572,0,0.00119618489407
1778627323.8395562,64045205,0,0.0087607307359576,0.0100559070706367,0.001420242479071,-0.0094787580892443,0.0070692147128283,-10.798643112182615,0,0,28.741233825683597,1,1,1000,1000,9.439556,0,0.001420242479071
1778627323.8395562,64045205,1,0.00873679574579,0.0101451501250267,0.0013995206682011,-0.0105725554749369,0.0070820851251482,-10.799676895141602,0,0,28.741233825683597,1,1,760,800,9.439556,0,0.0013995206682011
1778627323.8795402,64085189,0,0.0054837088100612,0.0058299000374972,0.0013220333494246,-0.0086139971390366,0.0076485974714159,-10.803138732910156,0,0,28.74340057373047,1,1,1000,1000,9.47954,0,0.0013220333494246
1778627323.8795402,64085189,1,0.0054547190666198,0.0057715489529073,0.0014564606826752,-0.009429452009499,0.0065853698179125,-10.80510425567627,0,0,28.74340057373047,1,1,760,800,9.47954,0,0.0014564606826752
1778627323.919524,64125173,0,0.0089840218424797,0.0092838006094098,0.001363227260299,-0.0092393178492784,0.0063724005594849,-10.80904483795166,0,0,28.745567321777344,1,1,1000,1000,9.519524,0,0.001363227260299
1778627323.919524,64125173,1,0.0089160948991775,0.009279727935791,0.001294931396842,-0.0078075472265481,0.0098501406610012,-10.809386253356934,0,0,28.745567321777344,1,1,760,800,9.519524,0,0.001294931396842
1778627323.959508,64165157,0,0.0040631219744682,0.0044105411507189,0.001366545795463,-0.0073692337609827,0.0078586786985397,-10.81753921508789,0,0,28.74773406982422,1,1,1000,1000,9.559508,0,0.001366545795463
1778627323.959508,64165157,1,0.0038488027639687,0.0045286454260349,0.0012485907645896,-0.01117146294564,0.0044284919276833,-10.818302154541016,0,0,28.74773406982422,1,1,760,800,9.559508,0,0.0012485907645896
1778627323.999492,64205141,0,0.0067534148693084,0.0059800674207508,0.0014433591859415,-0.0087660029530525,0.0079579018056392,-10.82778549194336,0,0,28.749902725219727,1,1,1000,1000,9.599492,0,0.0014433591859415
1778627323.999492,64205141,1,0.0066663920879364,0.006190288811922,0.0014437176287174,-0.0097795613110065,0.0048693991266191,-10.827644348144531,0,0,28.749902725219727,1,1,760,800,9.599492,0,0.0014437176287174
1778627324.039476,64245125,0,0.00288229691796,0.0038089198060333,0.0014316416345536,-0.0096498802304267,0.0070395492948591,-10.83656883239746,0,0,28.75206756591797,1,1,1000,1000,9.639476,0,0.0014316416345536
1778627324.039476,64245125,1,0.0028281854465603,0.0039670667611062,0.0015523906331509,-0.0101867811754345,0.00497676897794,-10.836973190307615,0,0,28.75206756591797,1,1,760,800,9.639476,0,0.0015523906331509
1778627324.07946,64285109,0,0.0022221293766051,0.0023935306817293,0.0014384998939931,-0.0091710295528173,0.0068543725647032,-10.831567764282228,0,0,28.754234313964844,1,1,1000,1000,9.67946,0,0.0014384998939931
1778627324.07946,64285109,1,0.0022699791006743,0.0024698651395738,0.0014283950440585,-0.0070122606121003,0.0077758962288498,-10.831212997436523,0,0,28.754234313964844,1,1,760,800,9.67946,0,0.0014283950440585
1778627324.119444,64325093,0,0.0058867405168712,0.0042793024331331,0.0015319056110456,-0.007849141024053,0.0066795353777706,-10.85313606262207,0,0,28.75640106201172,1,1,1000,1000,9.719444,0,0.0015319056110456
1778627324.119444,64325093,1,0.0058524273335933,0.0041322014294564,0.0016429353272542,-0.0086272051557898,0.0028517134487628,-10.85008430480957,0,0,28.75640106201172,1,1,760,800,9.719444,0,0.0016429353272542
1778627324.159428,64365077,0,0.0042677796445786,0.0036143222823739,0.0014956727391108,-0.008009061217308,0.0056356415152549,-10.843405723571776,0,0,28.75856590270996,1,1,1000,1000,9.759428,0,0.0014956727391108
1778627324.159428,64365077,1,0.0040326728485524,0.0033949760254472,0.0013838891172781,-0.0074767936021089,0.0055097704753279,-10.84471321105957,0,0,28.75856590270996,1,1,760,800,9.759428,0,0.0013838891172781
1778627324.199412,64405061,0,0.0010344991460442,-0.0003294800117146,0.0015887839253991,-0.0081581193953752,0.0051645748317241,-10.85799789428711,0,0,28.760786056518555,1,1,1000,1000,9.799412,0,0.0015887839253991
1778627324.199412,64405061,1,0.0010444120271131,-0.0005050628096796,0.0016558143543079,-0.0064642475917935,0.0056984745897352,-10.858141899108888,0,0,28.760786056518555,1,1,760,800,9.799412,0,0.0016558143543079
1778627324.239396,64445045,0,0.0011196002596989,-9.585524821886791e-05,0.0014399002538993,-0.0075466018170118,0.0056142811663448,-10.840824127197266,0,0,28.7629508972168,1,1,1000,1000,9.839396,0,0.0014399002538993
1778627324.239396,64445045,1,0.0010841442272067,0.0001253638329217,0.0012928657233715,-0.0072197429835796,0.0075091831386089,-10.840044021606444,0,0,28.7629508972168,1,1,760,800,9.839396,0,0.0012928657233715
1778627324.27938,64485029,0,0.0021409071050584,0.0009985254146158,0.001515140524134,-0.0065098479390144,0.0044264867901802,-10.859593391418455,0,0,28.76511573791504,1,1,1000,1000,9.87938,0,0.001515140524134
1778627324.27938,64485029,1,0.0019823452457785,0.0009767592418938,0.0015332850161939,-0.0062073403969407,0.0060001648962497,-10.860969543457031,0,0,28.76511573791504,1,1,760,800,9.87938,0,0.0015332850161939
1778627324.319364,64525013,0,0.0019159227376803,0.0009784877765923,0.0015019359998404,-0.0066667706705629,0.0030701381620019,-10.84165382385254,0,0,28.76728057861328,1,1,1000,1000,9.919364,0,0.0015019359998404
1778627324.319364,64525013,1,0.001806158106774,0.0011364046949893,0.0015868913615122,-0.0057267053052783,0.0053520807996392,-10.838151931762695,0,0,28.76728057861328,1,1,760,800,9.919364,0,0.0015868913615122
1778627324.359348,64564997,0,0.0008504902943968,-0.0009319559903815,0.0014585469616577,-0.0061013358645141,0.0044503482058644,-10.857295989990234,0,0,28.76939010620117,1,1,1000,1000,9.959348,0,0.0014585469616577
1778627324.359348,64564997,1,0.0007599869859404,-0.0009012659429572,0.0014872853644192,-0.0038399500772356,0.0050045349635183,-10.857748985290527,0,0,28.76939010620117,1,1,760,800,9.959348,0,0.0014872853644192
1778627324.399332,64604981,0,0.0008236396824941,-0.0008399566286243,0.0014113105135038,-0.0049507138319313,0.0049407542683184,-10.83820343017578,0,0,28.77155494689941,1,1,1000,1000,9.999332,0,0.0014113105135038
1778627324.399332,64604981,1,0.0007539812359027,-0.0008397833444178,0.0014755878364667,-0.0063208509236574,0.0036458580289036,-10.83812141418457,0,0,28.77155494689941,1,1,760,800,9.999332,0,0.0014755878364667
1778627324.439316,64644965,0,-0.0010941288201138,-0.0005856147618032,0.0014674067497253,-0.0048103928565979,0.0032525015994906,-10.851768493652344,0,0,28.773717880249023,1,1,1000,1000,10.039316,1,0.8014674067497254
1778627324.439316,64644965,1,-0.0010888954857364,-0.0005466962466016,0.0015111322281882,-0.0066729350946843,0.0023162541911005,-10.85080337524414,0,0,28.773717880249023,1,1,760,800,10.039316,1,0.8015111322281883
1778627324.4793,64684949,0,-0.0008234564447775,-0.0004249421763233,0.0014660914894193,-0.005544388666749,0.0030810255557298,-10.831542015075684,0,0,28.775880813598636,1,1,1000,1000,10.0793,1,0.8014660914894194
1778627324.4793,64684949,1,-0.0007594936760142,-0.0004014367004856,0.001398472697474,-0.00256859511137,0.0026643089950084,-10.834729194641112,0,0,28.775880813598636,1,1,760,800,10.0793,1,0.801398472697474
1778627324.519284,64724933,0,-9.063604011316784e-06,-0.0002816439373418,0.0013903283979743,-0.004440595395863,0.0012238707859069,-10.78990364074707,0,0,28.77804374694824,1,1,1000,1000,10.119284,1,0.8013903283979743
1778627324.519284,64724933,1,-0.000141434778925,-0.0004137602518312,0.0014928381424397,-0.0048302109353244,0.0041287085041403,-10.789953231811523,0,0,28.77804374694824,1,1,760,800,10.119284,1,0.8014928381424398
1778627324.559268,64764917,0,0.000101998593891,-0.000161828342243,0.00142562831752,-0.0045105437748134,0.0028586634434759,-10.688117027282717,0,0,28.780208587646484,1,1,1000,1000,10.159268,1,0.8014256283175201
1778627324.559268,64764917,1,0.0001607641752343,-0.0002244482166133,0.0013399615418165,-0.0051774741150438,0.001463909400627,-10.686519622802734,0,0,28.780208587646484,1,1,760,800,10.159268,1,0.8013399615418165
1778627324.599252,64804901,0,-0.000479515409097,-0.0004564038827084,0.0014592099469155,-0.0034459049347788,0.0011529144831001,-10.577977180480955,0,0,28.78236961364746,1,1,1000,1000,10.199252,1,0.8014592099469156
1778627324.599252,64804901,1,-0.0003820710699073,-0.0003956635482609,0.0015536040300503,-0.0039389650337398,0.0014259717427194,-10.578326225280762,0,0,28.78236961364746,1,1,760,800,10.199252,1,0.8015536040300504
1778627324.6392362,64844885,0,-0.0013078693300485,-9.993936691898853e-05,0.0014875442720949,-0.0036394754424691,0.0013888722751289,-10.479337692260742,0,0,28.78453254699707,1,1,1000,1000,10.239236,1,0.8014875442720949
1778627324.6392362,64844885,1,-0.0013062396319583,9.500163287157193e-06,0.0015689327847212,-0.00331966066733,0.0023070278111845,-10.480387687683104,0,0,28.78453254699707,1,1,760,800,10.239236,1,0.8015689327847213
1778627324.6792202,64884869,0,-0.0011883543338626,0.0002328016416868,0.0015232337173074,-0.0028564168605953,0.000442374497652,-10.388372421264648,0,0,28.786693572998047,1,1,1000,1000,10.27922,1,0.8015232337173075
1778627324.6792202,64884869,1,-0.001127119292505,0.0003415755927562,0.0017274749698117,-0.0026856313925236,0.0025700761470943,-10.389424324035645,0,0,28.786693572998047,1,1,760,800,10.27922,1,0.8017274749698118
1778627324.719204,64924853,0,-0.0011154353851452,-0.0003608501283451,0.0014670414384454,-0.0021162764169275,0.0002271180565003,-10.30303955078125,0,0,28.788854598999023,1,1,1000,1000,10.319204,1,0.8014670414384455
1778627324.719204,64924853,1,-0.0010402927873656,-0.0002870394382625,0.0014230097876861,-0.0025296229869127,0.0005950535996817,-10.301223754882812,0,0,28.788854598999023,1,1,760,800,10.319204,1,0.8014230097876861
1778627324.759188,64964837,0,-0.0018457486294209,-0.000532095786184,0.001455754507333,-0.0031423864420503,-2.117026269843336e-05,-10.226632118225098,0,0,28.791017532348636,1,1,1000,1000,10.359188,1,0.8014557545073331
1778627324.759188,64964837,1,-0.001776663120836,-0.0005897123483009,0.00132766389288,-0.0028946604579687,0.0007354676490649,-10.226186752319336,0,0,28.791017532348636,1,1,760,800,10.359188,1,0.80132766389288
1778627324.8000052,65005654,0,-0.0015710017178207,-0.0013090532738715,0.0013333319220691,-0.0031280841212719,-0.0003734238853212,-10.15593433380127,0,0,28.793231964111328,1,1,1000,1000,10.400005,1,0.8013333319220691
1778627324.8000052,65005654,1,-0.0014556802343577,-0.0013571417657658,0.001161613734439,-0.0046325325965881,-0.0014944170834496,-10.156375885009766,0,0,28.793231964111328,1,1,760,800,10.400005,1,0.8011616137344391
1778627324.8399892,65045638,0,-0.0014264546334743,-0.0027644364163279,0.0012699568178504,-0.0030024806037545,7.124752301024273e-06,-10.088899612426758,0,0,28.795392990112305,1,1,1000,1000,10.439989,1,0.8012699568178504
1778627324.8399892,65045638,1,-0.0016000320902094,-0.0028062756173312,0.0012359985848888,-0.0039326599799096,-0.0009691494051367,-10.088196754455566,0,0,28.795392990112305,1,1,760,800,10.439989,1,0.8012359985848888
1778627324.8799732,65085622,0,-0.0035566971637308,-0.000785176816862,0.0012414304073899,-0.002013616496697,-0.0010559423826634,-10.035922050476074,0,0,28.79755401611328,1,1,1000,1000,10.479973,1,0.8012414304073899
1778627324.8799732,65085622,1,-0.0034464560449123,-0.0008215781417675,0.001339171314612,-0.0018963196780532,0.0015988119412213,-10.037611961364746,0,0,28.79755401611328,1,1,760,800,10.479973,1,0.8013391713146121
1778627324.9199572,65125606,0,-0.0041890437714755,-0.0004495619796216,0.0011776110623031,-0.0020619477145373,-0.0017901262035593,-9.98275375366211,0,0,28.799713134765625,1,1,1000,1000,10.519957,1,0.8011776110623031
1778627324.9199572,65125606,1,-0.0042456206865608,-0.0004567067371681,0.0011950843036174,-0.0013644612627103,-0.0004314660618547,-9.981538772583008,0,0,28.799713134765625,1,1,760,800,10.519957,1,0.8011950843036174
1778627324.9599411,65165590,0,0.0001469117996748,-0.003969042096287,0.0011437236098572,-0.0011762159410864,-0.0012551804538816,-9.938289642333984,0,0,28.8018741607666,1,1,1000,1000,10.559941,1,0.8011437236098572
1778627324.9599411,65165590,1,-1.220610283780843e-05,-0.0040678028017282,0.0010479155462235,-0.0018409561598673,-0.0012386341113597,-9.940568923950195,0,0,28.8018741607666,1,1,760,800,10.559941,1,0.8010479155462236
1778627324.9999251,65205574,0,-0.0046735685318708,0.0002453411289025,0.0009965542703866,-0.001916543347761,-0.0012010963400825,-9.901671409606934,0,0,28.804033279418945,1,1,1000,1000,10.599925,1,0.8009965542703866
1778627324.9999251,65205574,1,-0.0045830989256501,0.0001656728418311,0.0010481094941496,-0.0024024944286793,-0.001380912028253,-9.899842262268066,0,0,28.804033279418945,1,1,760,800,10.599925,1,0.8010481094941496
1778627325.0399091,65245558,0,-7.843557250453159e-05,-0.0034317951649427,0.0009108345839194,-0.0008270642138086,-0.0020826063118875,-9.867050170898438,0,0,28.80619239807129,1,1,1000,1000,10.639909,1,0.8009108345839194
1778627325.0399091,65245558,1,-0.0001031974898069,-0.0034925572108477,0.0008433309849351,-0.0021435546223074,-0.0016617730725556,-9.867624282836914,0,0,28.80619239807129,1,1,760,800,10.639909,1,0.8008433309849351
1778627325.079893,65285542,0,-0.0021364674903452,-0.0048237866722047,0.0007711187936365,-0.0009662729571573,-0.0019407060462981,-9.833026885986328,0,0,28.808351516723636,1,1,1000,1000,10.679893,1,0.8007711187936365
1778627325.079893,65285542,1,-0.0021741020027548,-0.0047899726778268,0.0007711751968599,-0.0003085391945205,0.0017922255210578,-9.833110809326172,0,0,28.808351516723636,1,1,760,800,10.679893,1,0.8007711751968599
1778627325.119877,65325526,0,-0.0043288110755383,-0.0012209347914904,0.0005622433382086,-0.0018114817794412,-0.0033434180077165,-9.80283260345459,0,0,28.810508728027344,1,1,1000,1000,10.719877,1,0.8005622433382087
1778627325.119877,65325526,1,-0.0044365301728248,-0.0013602315448224,0.0006555011495947,-0.0040239882655441,-0.0050353305414319,-9.802985191345217,0,0,28.810508728027344,1,1,760,800,10.719877,1,0.8006555011495947
1778627325.159861,65365510,0,-0.0007289928616955,-0.0021267610136419,0.0004198091919533,-0.0006245331023819,-0.0011164988391101,-9.784948348999023,0,0,28.812667846679688,1,1,1000,1000,10.759861,1,0.8004198091919533
1778627325.159861,65365510,1,-0.0008081997511908,-0.0024650727864354,0.0005701248883269,0.0014586227480322,-0.0006207544356584,-9.7859468460083,0,0,28.812667846679688,1,1,760,800,10.759861,1,0.8005701248883269
1778627325.199845,65405494,0,-0.0015871984651312,6.803000724175945e-05,0.000317472993629,-0.0013864050852134,-0.0035509755834937,-9.76428508758545,0,0,28.81482696533203,1,1,1000,1000,10.799845,1,0.8003174729936291
1778627325.199845,65405494,1,-0.0016082564834505,9.118976595345885e-05,7.166804425651208e-05,-0.001237399643287,-0.0031782432924956,-9.764212608337402,0,0,28.81482696533203,1,1,760,800,10.799845,1,0.8000716680442566
1778627325.239829,65445478,0,-0.0032717720605432,-0.0016033321153372,9.247118214261718e-06,0.00018235736934,-0.002743259537965,-9.744056701660156,0,0,28.816984176635746,1,1,1000,1000,10.839829,1,0.8000092471182143
1778627325.239829,65445478,1,-0.0031232689507305,-0.0016140365041792,0.0001051578874466,0.0005531546194106,-0.0019208663143217,-9.744502067565918,0,0,28.816930770874023,1,1,760,800,10.839829,1,0.8001051578874466
1778627325.279813,65485462,0,-0.0027483555022627,-0.0012557480949908,-0.0002271595585625,-0.0001017276517814,-0.0014693530974909,-9.73768711090088,0,0,28.81914329528809,1,1,1000,1000,10.879813,1,0.7997728404414376
1778627325.279813,65485462,1,-0.0026514381170272,-0.0012208063853904,-0.0002291127748321,-0.0022423421032726,-0.0032354104332625,-9.736042976379396,0,0,28.81908798217773,1,1,760,800,10.879813,1,0.799770887225168
1778627325.319797,65525446,0,0.0002118225675076,-0.0022455211728811,-0.0002218747104052,0.0007308680796995,-0.0028835439588874,-9.730674743652344,0,0,28.821298599243164,1,1,1000,1000,10.919797,1,0.7997781252895948
1778627325.319797,65525446,1,0.000213957086089,-0.0021637950558215,-0.0002036298828897,-0.0001462732761865,-0.0024481224827468,-9.730527877807615,0,0,28.821245193481445,1,1,760,800,10.919797,1,0.7997963701171104
1778627325.359781,65565430,0,0.0012012979714199,-0.0018891791114583,-0.0005680866888724,-0.0004606019938364,-0.002786659868434,-9.722506523132324,0,0,28.823455810546875,1,1,1000,1000,10.959781,1,0.7994319133111276
1778627325.359781,65565430,1,0.0009703114628791,-0.0020203473977744,-0.0006376823876053,-0.000267393363174,-0.002300429623574,-9.723746299743652,0,0,28.82340240478516,1,1,760,800,10.959781,1,0.7993623176123947
1778627325.399765,65605414,0,0.0015139980241656,-0.0029730508103966,-0.0009538409067317,0.0007968670106492,-0.0042553935199975,-9.711710929870604,0,0,28.825613021850582,1,1,1000,1000,10.999765,1,0.7990461590932684
1778627325.399765,65605414,1,0.0016649940516799,-0.0029319934546947,-0.0008926795562729,0.0021393024362623,-0.0005287574604153,-9.713415145874023,0,0,28.825559616088867,1,1,760,800,10.999765,1,0.7991073204437271
1778627325.439749,65645398,0,0.0014424783876165,-0.0026053576730191,-0.0010531836887821,0.0003867355990223,-0.0026900677476078,-9.713645935058594,0,0,28.827770233154297,1,1,1000,1000,11.039749,1,0.7989468163112179
1778627325.439749,65645398,1,0.0015441660070791,-0.0024985715281218,-0.0011746149975806,-0.000588291673921,-0.0021048099733889,-9.712882995605469,0,0,28.827716827392575,1,1,760,800,11.039749,1,0.7988253850024194
1778627325.4797328,65685382,0,0.0013763129245489,-0.0007643577991984,-0.0011513255303725,0.0005771227297373,-0.0018162602791562,-9.714994430541992,0,0,28.82992553710937,1,1,1000,1000,11.079733,1,0.7988486744696276
1778627325.4797328,65685382,1,0.0013568358263,-0.0006740129902027,-0.001209941226989,0.0004027194809168,-0.0006705041741952,-9.714910507202148,0,0,28.829872131347656,1,1,760,800,11.079733,1,0.798790058773011
1778627325.5197172,65725366,0,0.0013776631094515,-0.0009750596364028,-0.0010402344632893,0.0004870192497037,-0.0030121207237243,-9.712557792663574,0,0,28.832080841064453,1,1,1000,1000,11.119717,1,0.7989597655367108
1778627325.5197172,65725366,1,0.0014314961154013,-0.001183861750178,-0.0010226719314232,-0.0020636203698813,-0.0040436037816107,-9.710701942443848,0,0,28.83202743530273,1,1,760,800,11.119717,1,0.7989773280685768
1778627325.5597012,65765350,0,0.0013367655919864,-0.0007133370381779,-0.000888104783371,0.0007512726588174,-0.0020712574478238,-9.714723587036133,0,0,28.83423614501953,1,1,1000,1000,11.159701,1,0.7991118952166291
1778627325.5597012,65765350,1,0.0011622956953942,-0.0007397370063699,-0.0009394094231538,0.0004621577390935,-0.0044875908643007,-9.714072227478027,0,0,28.83418273925781,1,1,760,800,11.159701,1,0.7990605905768462
1778627325.5996852,65805334,0,0.0012586301891133,0.0009611543500795,-0.0007497571059502,0.0001721880689729,-0.0029799600597471,-9.718233108520508,0,0,28.83639144897461,1,1,1000,1000,11.199685,1,0.7992502428940499
1778627325.5996852,65805334,1,0.0010396841680631,0.0009877672418951,-0.0008555724052712,4.056210309499875e-05,-0.0027929791249334,-9.716812133789062,0,0,28.83633804321289,1,1,760,800,11.199685,1,0.7991444275947288
1778627325.6396692,65845318,0,0.0012490767985582,0.0025719807017594,-0.0009284251136705,0.0005952125065959,-0.003557036165148,-9.727304458618164,0,0,28.838546752929688,1,1,1000,1000,11.239669,1,0.7990715748863295
1778627325.6396692,65845318,1,0.0013023868668824,0.0027691356372088,-0.0009859926067292,0.0006008128402754,-0.0027533522807061,-9.728179931640623,0,0,28.83849334716797,1,1,760,800,11.239669,1,0.7990140073932709
1778627325.6796532,65885302,0,0.0011895287316292,0.0033818997908383,-0.0011669675586745,0.0012268603313714,-0.0043576247990131,-9.729177474975586,0,0,28.84070205688477,1,1,1000,1000,11.279653,1,0.7988330324413255
1778627325.6796532,65885302,1,0.0011808945564553,0.0034344557207077,-0.0012610470876097,0.0003463635221123,-0.0010141276288777,-9.729880332946776,0,0,28.840648651123047,1,1,760,800,11.279653,1,0.7987389529123904
1778627325.7196372,65925286,0,-0.000753290427383,0.0022135430481284,-0.0014625904150307,-0.0004852977581322,-0.0030467109754681,-9.735569953918455,0,0,28.842857360839844,1,1,1000,1000,11.319637,1,0.7985374095849693
1778627325.7196372,65925286,1,-0.0007663035066798,0.002214471809566,-0.0013988910941407,-0.001613404136151,-0.0039145844057202,-9.736084938049316,0,0,28.842803955078125,1,1,760,800,11.319637,1,0.7986011089058593
1778627325.7596211,65965270,0,-0.0004601695691235,0.0030214698053896,-0.0018879439448937,0.0002478336100466,-0.0032461048103868,-9.74845027923584,0,0,28.84501075744629,1,1,1000,1000,11.359621,1,0.7981120560551064
1778627325.7596211,65965270,1,-0.0004981423262506,0.0029753036797046,-0.0017516463994979,0.0003340719849802,-0.0025979874189943,-9.745964050292969,0,0,28.84495735168457,1,1,760,800,11.359621,1,0.7982483536005022
