timestamp,TimeUS,I,GyrX,GyrY,GyrZ,AccX,AccY,AccZ,EG,EA,T,GH,AH,GHz,AHz,TimeSec,AttackActive_IMU,GyrZ_attacked
1778785729.8992069,71084055,0,0.0010090712457895,0.0009509260999038,0.0010454015573486,-0.0012046624906361,-0.0013208541786298,-9.81886863708496,0,0,29.11833000183105,1,1,1000,1000,0.0,0,0.0010454015573486
1778785729.8992069,71084055,1,0.000778644985985,0.000882978667505,0.0011144919553771,-0.0010682875290513,-0.0012053588870912,-9.818501472473145,0,0,29.11827850341797,1,1,760,800,0.0,0,0.0011144919553771
1778785729.9391909,71124039,0,0.0010471893474459,0.0009929533116519,0.0009903905447572,-0.0013434009160846,-0.0002280321641592,-9.818078994750977,0,0,29.12044715881348,1,1,1000,1000,0.039984,0,0.0009903905447572
1778785729.9391909,71124039,1,0.0012745297281071,0.0010745726758614,0.0011561547871679,-0.0006269369041547,-0.0025167153216898,-9.815818786621094,0,0,29.12039375305176,1,1,760,800,0.039984,0,0.0011561547871679
1778785729.9791749,71164023,0,0.0010656882077455,0.0010040536290034,0.0009873957606032,-0.0017343164654448,-0.0012900936417281,-9.818352699279783,0,0,29.1225643157959,1,1,1000,1000,0.079968,0,0.0009873957606032
1778785729.9791749,71164023,1,0.0011783709051087,0.0011337511241436,0.0012374861398711,-0.0023283965419977,0.0003197448677383,-9.817682266235352,0,0,29.12251091003418,1,1,760,800,0.079968,0,0.0012374861398711
1778785730.0199919,71204840,0,0.0010453348513692,0.0009954946581274,0.001019618823193,-0.0011159324785694,-0.0003070007078349,-9.816993713378906,0,0,29.12468147277832,1,1,1000,1000,0.120785,0,0.001019618823193
1778785730.0199919,71204840,1,0.0007887027459219,0.0008882888359948,0.0011911893961951,0.002444181125611,-0.0006555998697876,-9.816713333129885,0,0,29.12468147277832,1,1,760,800,0.120785,0,0.0011911893961951
1778785730.0599759,71244824,0,0.0010513811139389,0.0010844056960195,0.0009857125114649,-0.0022637287620455,-0.0004593065823428,-9.816749572753906,0,0,29.12679672241211,1,1,1000,1000,0.160769,0,0.0009857125114649
1778785730.0599759,71244824,1,0.0009741971152834,0.0010941168293356,0.0009154576109722,-0.0024165962822735,-0.0019437584560364,-9.816041946411133,0,0,29.12679672241211,1,1,760,800,0.160769,0,0.0009154576109722
1778785730.0999599,71284808,0,0.0009896688861772,0.000950246816501,0.0010239639086648,-0.0022692398633807,-0.0021139131858944,-9.818608283996582,0,0,29.12891387939453,1,1,1000,1000,0.200753,0,0.0010239639086648
1778785730.0999599,71284808,1,0.0010639645624905,0.0010350898373872,0.0010123817482963,-0.0008606815827079,0.0002175698755308,-9.81680965423584,0,0,29.12891387939453,1,1,760,800,0.200753,0,0.0010123817482963
1778785730.1399438,71324792,0,0.0009874097304418,0.0010088888229802,0.0009932621615007,-0.0009257699130102,-0.0002645609492901,-9.816102981567385,0,0,29.131031036376957,1,1,1000,1000,0.240737,0,0.0009932621615007
1778785730.1399438,71324792,1,0.0010217365343123,0.0009846973698586,0.0010411444818601,-0.0025098929181694,-0.0016760777216404,-9.816109657287598,0,0,29.131031036376957,1,1,760,800,0.240737,0,0.0010411444818601
1778785730.1799278,71364776,0,0.0010058309417217,0.0010431540431454,0.0010039204498752,-0.0011588000925257,-0.0007655640365555,-9.81706428527832,0,0,29.133146286010746,1,1,1000,1000,0.280721,0,0.0010039204498752
1778785730.1799278,71364776,1,0.0009248058777302,0.0010235669324174,0.0010049936827272,-0.0026020121295005,-0.0007754341932013,-9.815725326538086,0,0,29.133146286010746,1,1,760,800,0.280721,0,0.0010049936827272
1778785730.2199118,71404760,0,0.0010668328031897,0.0010426617227494,0.0009773997589945,-0.0012350397882983,-0.0002564967726357,-9.816308975219728,0,0,29.13526153564453,1,1,1000,1000,0.320705,0,0.0009773997589945
1778785730.2199118,71404760,1,0.0008805012330412,0.0008975389646366,0.0008825003169476,-7.183891284512356e-05,-0.0013846503570675,-9.818187713623049,0,0,29.13526153564453,1,1,760,800,0.320705,0,0.0008825003169476
1778785730.259896,71444744,0,0.0009971170220524,0.0010079307248815,0.0009948688093572,-0.0016825690399855,-0.0004523991956375,-9.817102432250977,0,0,29.13737678527832,1,1,1000,1000,0.360689,0,0.0009948688093572
1778785730.259896,71444744,1,0.0007535484619438,0.0008849838050082,0.0013671871274709,-0.002210256177932,0.0010081033688038,-9.81946086883545,0,0,29.13737678527832,1,1,760,800,0.360689,0,0.0013671871274709
1778785730.29988,71484728,0,0.0009484565234743,0.0009517223807051,0.0009641959914006,-0.0009006334003061,-0.0004361647297628,-9.818422317504885,0,0,29.13949203491211,1,1,1000,1000,0.400673,0,0.0009641959914006
1778785730.29988,71484728,1,0.0009563901112414,0.0009896531701087,0.0009405673481523,4.278754204278812e-05,-0.0005251223919913,-9.818140983581545,0,0,29.13949203491211,1,1,760,800,0.400673,0,0.0009405673481523
1778785730.339864,71524712,0,0.0010416728910058,0.0009987723315134,0.0010444866493344,-0.000937350501772,-0.0004918727790936,-9.816542625427246,0,0,29.141605377197266,1,1,1000,1000,0.440657,0,0.0010444866493344
1778785730.339864,71524712,1,0.0008211858803406,0.0008781144279055,0.0009457950945943,-0.0018141911132261,-0.0012689979048445,-9.82095718383789,0,0,29.141605377197266,1,1,760,800,0.440657,0,0.0009457950945943
1778785730.379848,71564696,0,0.0009301770478487,0.0010155488271266,0.0011071464978158,-0.0006532419356517,-0.0003910770756192,-9.817618370056152,0,0,29.14372062683105,1,1,1000,1000,0.480641,0,0.0011071464978158
1778785730.379848,71564696,1,0.0009791085030883,0.0009173818398267,0.0010070216376334,-0.0009034790564328,-0.0038988168817013,-9.818017959594728,0,0,29.14372062683105,1,1,760,800,0.480641,0,0.0010070216376334
1778785730.419832,71604680,0,0.0010093817254528,0.0009678039932623,0.0009991666302084,-0.0013529709540307,-0.0008162150043062,-9.817392349243164,0,0,29.14583396911621,1,1,1000,1000,0.520625,0,0.0009991666302084
1778785730.419832,71604680,1,0.0008807111298665,0.0008810863364487,0.001132040284574,-0.0026232269592583,-0.0011382387019693,-9.817253112792969,0,0,29.14583396911621,1,1,760,800,0.520625,0,0.001132040284574
1778785730.459816,71644664,0,0.0010033239377662,0.001049903454259,0.0010729702189564,-0.0005531618953682,-0.0012967870570719,-9.817606925964355,0,0,29.14794921875,1,1,1000,1000,0.560609,0,0.0010729702189564
1778785730.459816,71644664,1,0.0009982358897104,0.0011206886265426,0.0009881041478365,-0.0002441690594423,-0.0033460999839007,-9.820394515991213,0,0,29.14794921875,1,1,760,800,0.560609,0,0.0009881041478365
1778785730.4998,71684648,0,0.0010090086143463,0.0009399205446243,0.0009876283584162,-0.0006561866612173,-0.0017057966906577,-9.818910598754885,0,0,29.15006256103516,1,1,1000,1000,0.600593,0,0.0009876283584162
1778785730.4998,71684648,1,0.0009693230967968,0.0010574404150247,0.0008330940036103,-0.0037757540121674,0.0006949998787604,-9.816906929016112,0,0,29.15006256103516,1,1,760,800,0.600593,0,0.0008330940036103
1778785730.539784,71724632,0,0.0010611183242872,0.0011057128431275,0.001012269873172,0.0001273943635169,-0.0009775222279131,-9.816672325134276,0,0,29.152175903320312,1,1,1000,1000,0.640577,0,0.001012269873172
1778785730.539784,71724632,1,0.000816568150185,0.0010263957083225,0.0012959167361259,-0.0015446873148903,-0.0011383213568478,-9.817630767822266,0,0,29.152175903320312,1,1,760,800,0.640577,0,0.0012959167361259
1778785730.579768,71764616,0,0.0008866262505762,0.0009594367584213,0.0010458412580192,-0.002168915932998,-0.0009721817914396,-9.817861557006836,0,0,29.15428733825684,1,1,1000,1000,0.680561,0,0.0010458412580192
1778785730.579768,71764616,1,0.0010960050858557,0.0010739200515672,0.0010160863166674,-0.0023038641083985,-0.0014306813245639,-9.818792343139648,0,0,29.15428733825684,1,1,760,800,0.680561,0,0.0010160863166674
1778785730.619752,71804600,0,0.0010104663670063,0.0009891202207654,0.0010039056651294,-0.0021535158157348,-0.0001990832970477,-9.817282676696776,0,0,29.156400680541992,1,1,1000,1000,0.720545,0,0.0010039056651294
1778785730.619752,71804600,1,0.0007885413942858,0.0011131990468129,0.0010673715732991,-0.0012889985227957,-0.0007095073233358,-9.817169189453123,0,0,29.156400680541992,1,1,760,800,0.720545,0,0.0010673715732991
1778785730.659736,71844584,0,0.0010182941332459,0.0010250979103147,0.0010701577411964,-0.0009023420279845,0.0003853339876513,-9.81796646118164,0,0,29.15851211547852,1,1,1000,1000,0.760529,0,0.0010701577411964
1778785730.659736,71844584,1,0.0008713335264474,0.0009682544623501,0.000983327277936,-0.0023265182971954,-0.001661735586822,-9.817458152770996,0,0,29.15851211547852,1,1,760,800,0.760529,0,0.000983327277936
1778785730.69972,71884568,0,0.001057626795955,0.0009770522592589,0.0009925013873726,-0.0023724765051156,-0.0016900689806789,-9.816301345825195,0,0,29.160625457763672,1,1,1000,1000,0.800513,0,0.0009925013873726
1778785730.69972,71884568,1,0.000945670180954,0.0011582493316382,0.001192046678625,-0.0002013601188082,-0.0021962039172649,-9.817245483398438,0,0,29.160625457763672,1,1,760,800,0.800513,0,0.001192046678625
1778785730.739704,71924552,0,0.0010237933602184,0.0010617051739245,0.0010053213918581,-0.0005750731215812,-0.0015896779950708,-9.816997528076172,0,0,29.162736892700195,1,1,1000,1000,0.840497,0,0.0010053213918581
1778785730.739704,71924552,1,0.0010371441021561,0.0009223268134519,0.0009261587983928,-0.001382443588227,0.0001406222581863,-9.81746768951416,0,0,29.162736892700195,1,1,760,800,0.840497,0,0.0009261587983928
1778785730.779688,71964536,0,0.001027516555041,0.0010086323600262,0.0009871067013591,7.009296678006649e-05,-0.000519192428328,-9.818275451660156,0,0,29.16484832763672,1,1,1000,1000,0.880481,0,0.0009871067013591
1778785730.779688,71964536,1,0.0011622866149991,0.0010624508140608,0.0009919994045048,-0.0004889711271971,-0.0037212851457297,-9.81640338897705,0,0,29.16484832763672,1,1,760,800,0.880481,0,0.0009919994045048
1778785730.8196719,72004520,0,0.0010761646553874,0.0010147554567083,0.0010089094284921,-0.0002223410847363,-0.0004777158028446,-9.816996574401855,0,0,29.16695976257324,1,1,1000,1000,0.920465,0,0.0010089094284921
1778785730.8196719,72004520,1,0.0009661127696745,0.0009597592870704,0.0011503847781568,-0.0020401391666382,-0.0008759789634495,-9.81574821472168,0,0,29.16695976257324,1,1,760,800,0.920465,0,0.0011503847781568
1778785730.8596559,72044504,0,0.001056840759702,0.0010026306845247,0.0009668667335063,-0.0009067313512787,-0.0003798810357693,-9.818435668945312,0,0,29.16907119750977,1,1,1000,1000,0.960449,0,0.0009668667335063
1778785730.8596559,72044504,1,0.0010347553761675,0.0009731731843203,0.0011360875796526,-0.0013807751238346,-0.0028888152446597,-9.815546035766602,0,0,29.16907119750977,1,1,760,800,0.960449,0,0.0011360875796526
1778785730.8996398,72084488,0,0.0010389504022896,0.0010063850786536,0.0009805778972804,-5.8180656196782365e-05,-0.0004124859697185,-9.81833267211914,0,0,29.171180725097656,1,1,1000,1000,1.000433,0,0.0009805778972804
1778785730.8996398,72084488,1,0.0008711822447367,0.0010283663868904,0.0012337147491052,-0.0005410516750998,-0.0013195583596825,-9.818567276000977,0,0,29.171180725097656,1,1,760,800,1.000433,0,0.0012337147491052
1778785730.9396238,72124472,0,0.0009963456541299,0.0009932182729244,0.0010277178371325,-0.0009127446683123,-0.0010512153385207,-9.818178176879885,0,0,29.17329216003418,1,1,1000,1000,1.040417,0,0.0010277178371325
1778785730.9396238,72124472,1,0.0012480339501053,0.0009131660917773,0.0011851206654682,-0.0003544241772033,-0.0008110353373922,-9.817779541015623,0,0,29.17329216003418,1,1,760,800,1.040417,0,0.0011851206654682
1778785730.9796078,72164456,0,0.0010565733537077,0.0010517181362956,0.0010128567228093,-0.0018420343985781,-0.0001674995583016,-9.818565368652344,0,0,29.17540168762207,1,1,1000,1000,1.080401,0,0.0010128567228093
1778785730.9796078,72164456,1,0.0011189458891749,0.0010148793226107,0.0009999184403568,-0.0010280376300215,-0.0032335533760488,-9.81492805480957,0,0,29.17540168762207,1,1,760,800,1.080401,0,0.0009999184403568
1778785731.019592,72204440,0,0.0010455331066623,0.0010236361995339,0.0010845789220184,-0.0011259402381256,-0.001860779011622,-9.816255569458008,0,0,29.17751121520996,1,1,1000,1000,1.120385,0,0.0010845789220184
1778785731.019592,72204440,1,0.0007159874076023,0.0009368857135996,0.0010741270380094,-0.0001329744409304,-0.0029375804588198,-9.81820583343506,0,0,29.17751121520996,1,1,760,800,1.120385,0,0.0010741270380094
1778785731.059576,72244424,0,0.0010807779617607,0.0010019526816904,0.0009131322149187,-0.0003155797894578,-0.001770723843947,-9.816570281982422,0,0,29.17962074279785,1,1,1000,1000,1.160369,0,0.0009131322149187
1778785731.059576,72244424,1,0.001164288027212,0.0010140070226043,0.000653272611089,-0.0008784743258729,-0.0009140088804997,-9.816737174987791,0,0,29.17962074279785,1,1,760,800,1.160369,0,0.000653272611089
1778785731.09956,72284408,0,0.0010254803346469,0.0011196811683475,0.0010133974719792,-0.0008376673795282,-0.0004477657785173,-9.81809902191162,0,0,29.18172836303711,1,1,1000,1000,1.200353,0,0.0010133974719792
1778785731.09956,72284408,1,0.0010496017057448,0.0011556835379451,0.0011944085126742,-0.0012395191006362,-0.0015237771440297,-9.818058013916016,0,0,29.18172836303711,1,1,760,800,1.200353,0,0.0011944085126742
1778785731.139544,72324392,0,0.0010729011846706,0.0010432039853185,0.0010827368823811,-0.0026531335897743,-0.0006900517037138,-9.817501068115234,0,0,29.183839797973636,1,1,1000,1000,1.240337,0,0.0010827368823811
1778785731.139544,72324392,1,0.0010912803700193,0.0010903497459366,0.0010168589651584,0.0016368483193218,0.0007729436620138,-9.819509506225586,0,0,29.183839797973636,1,1,760,800,1.240337,0,0.0010168589651584
1778785731.179528,72364376,0,0.0009915137197822,0.0010421125916764,0.0009737773216329,-0.0016495094168931,-0.001862151781097,-9.817293167114258,0,0,29.18594741821289,1,1,1000,1000,1.280321,0,0.0009737773216329
1778785731.179528,72364376,1,0.0013229539617896,0.0011444403789937,0.0008301550988107,-0.0016419549938291,0.0001119113221648,-9.81870460510254,0,0,29.18594741821289,1,1,760,800,1.280321,0,0.0008301550988107
1778785731.219512,72404360,0,0.0009273147443309,0.0010916870087385,0.0010581410024315,-0.0011978681432083,-0.0002301243221154,-9.81747817993164,0,0,29.18805694580078,1,1,1000,1000,1.320305,0,0.0010581410024315
1778785731.219512,72404360,1,0.001092727528885,0.0011063772253692,0.0010052893776446,-0.0011183505412191,-0.0006868915515951,-9.817425727844238,0,0,29.18805694580078,1,1,760,800,1.320305,0,0.0010052893776446
1778785731.259496,72444344,0,0.0010296870023012,0.0010417974554002,0.0010524333920329,-0.0009885958861559,-0.0018299084622412,-9.817736625671388,0,0,29.19016456604004,1,1,1000,1000,1.360289,0,0.0010524333920329
1778785731.259496,72444344,1,0.001131952740252,0.001133166020736,0.001009355764836,-3.326204023323953e-06,-0.0018971469253301,-9.818758964538574,0,0,29.19016456604004,1,1,760,800,1.360289,0,0.001009355764836
1778785731.29948,72484328,0,0.0010124334366992,0.0010604634881019,0.0010059381602331,-0.0010998707730323,-0.0011498685926198,-9.818473815917969,0,0,29.192272186279297,1,1,1000,1000,1.400273,0,0.0010059381602331
1778785731.29948,72484328,1,0.001006540027447,0.0008630768861621,0.0010101988445967,-0.0038689072243869,-0.0019756634719669,-9.815507888793944,0,0,29.192272186279297,1,1,760,800,1.400273,0,0.0010101988445967
1778785731.339464,72524312,0,0.0009670810541138,0.0009944658959284,0.0010108522837981,0.0002840595261659,-0.0007923410157673,-9.816481590270996,0,0,29.194379806518555,1,1,1000,1000,1.440257,0,0.0010108522837981
1778785731.339464,72524312,1,0.0010107497218996,0.0010640906402841,0.001121147419326,3.8280453736661e-05,0.0004988596774637,-9.818472862243652,0,0,29.194379806518555,1,1,760,800,1.440257,0,0.001121147419326
1778785731.379448,72564296,0,0.0010058028856292,0.0009669446735642,0.0010574625339359,-0.0012153818970546,-0.0007903894293121,-9.818330764770508,0,0,29.19648742675781,1,1,1000,1000,1.480241,0,0.0010574625339359
1778785731.379448,72564296,1,0.0009016235126182,0.0009184021037071,0.0008975451346486,0.0019446088699623,-4.104485924472101e-06,-9.818137168884276,0,0,29.19648742675781,1,1,760,800,1.480241,0,0.0008975451346486
1778785731.419432,72604280,0,0.0009423966403119,0.0011284690117463,0.0010858576279133,-0.0006165640079416,-0.0010635324288159,-9.817774772644045,0,0,29.19859313964844,1,1,1000,1000,1.520225,0,0.0010858576279133
1778785731.419432,72604280,1,0.0008299548644572,0.000872335396707,0.001107336487621,-0.0012389400508254,-0.0014853801112622,-9.817930221557615,0,0,29.19859313964844,1,1,760,800,1.520225,0,0.001107336487621
1778785731.459416,72644264,0,0.0010669762268662,0.0010544219985604,0.0009870624635368,-0.0003486472123768,-0.0003140674380119,-9.817864418029783,0,0,29.20070075988769,1,1,1000,1000,1.560209,0,0.0009870624635368
1778785731.459416,72644264,1,0.0011368755949661,0.0010277749970555,0.0010451702401041,-0.0024775273632258,-0.0030413644853979,-9.817602157592772,0,0,29.20070075988769,1,1,760,800,1.560209,0,0.0010451702401041
1778785731.4994,72684248,0,0.0010166768915951,0.0010334756225347,0.0011499912943691,-0.0008694324060343,-0.0013702869182452,-9.817131996154783,0,0,29.20280647277832,1,1,1000,1000,1.600193,0,0.0011499912943691
1778785731.4994,72684248,1,0.0012119500897824,0.0009895004332065,0.0008087931782938,-0.0028867973014712,0.0002855049096979,-9.819931983947754,0,0,29.20280647277832,1,1,760,800,1.600193,0,0.0008087931782938
1778785731.539384,72724232,0,0.0010697273537516,0.0010126694105565,0.0009945683414116,-0.0012942443136125,-0.0005502130952663,-9.81791877746582,0,0,29.20486068725586,1,1,1000,1000,1.640177,0,0.0009945683414116
1778785731.539384,72724232,1,0.0010541330557316,0.0009314113412983,0.001024971017614,-0.0029571403283625,-0.0029608495533466,-9.820844650268556,0,0,29.20486068725586,1,1,760,800,1.640177,0,0.001024971017614
1778785731.5793679,72764216,0,0.0010911327553912,0.0010296980617567,0.0010374796111136,-0.0005929238395765,-0.0012581094633787,-9.816410064697266,0,0,29.206966400146484,1,1,1000,1000,1.680161,0,0.0010374796111136
1778785731.5793679,72764216,1,0.0008029649034142,0.001028332626447,0.0008702845079824,0.0020779047627002,0.0003193877055309,-9.817916870117188,0,0,29.206966400146484,1,1,760,800,1.680161,0,0.0008702845079824
1778785731.6193519,72804200,0,0.0010596262291073,0.0010836225701496,0.0010308177443221,-0.0020195373799651,-0.0009600714547559,-9.816699981689451,0,0,29.20907211303711,1,1,1000,1000,1.720145,0,0.0010308177443221
1778785731.6193519,72804200,1,0.0011649252846837,0.0010065790265798,0.0010675591183826,-0.0013560683000832,0.0005585397593677,-9.816272735595703,0,0,29.20907211303711,1,1,760,800,1.720145,0,0.0010675591183826
1778785731.6593359,72844184,0,0.0010127584682777,0.0009663557866588,0.0010471879504621,9.485648479312658e-05,-0.001168028335087,-9.817312240600586,0,0,29.21117782592773,1,1,1000,1000,1.760129,0,0.0010471879504621
1778785731.6593359,72844184,1,0.0008708937093615,0.0009932703105732,0.0009705083211883,-0.0002815423067659,-0.0016425900394096,-9.818309783935549,0,0,29.21117782592773,1,1,760,800,1.760129,0,0.0009705083211883
1778785731.6993198,72884168,0,0.0009744312264956,0.0010111393639817,0.0010311376536265,-0.0017961002886295,-0.0012530888197943,-9.816736221313477,0,0,29.213281631469727,1,1,1000,1000,1.800113,0,0.0010311376536265
1778785731.6993198,72884168,1,0.0008972610230557,0.0011252271942794,0.0009838364785537,-0.0035690311342477,-0.0021195206791162,-9.81986141204834,0,0,29.213281631469727,1,1,760,800,1.800113,0,0.0009838364785537
1778785731.7393038,72924152,0,0.0011398685164749,0.0010774453403428,0.001069689868018,-0.0009296051575802,-0.0013625812716782,-9.81712532043457,0,0,29.21538734436035,1,1,1000,1000,1.840097,0,0.001069689868018
1778785731.7393038,72924152,1,0.0012712939642369,0.001032464322634,0.0010639913380146,-0.0001048079720931,-0.0024040513671934,-9.816600799560549,0,0,29.21538734436035,1,1,760,800,1.840097,0,0.0010639913380146
1778785731.7792878,72964136,0,0.0010688983602449,0.0011050386819988,0.0010177710792049,-0.0004092855378985,-0.0010740616125985,-9.81773853302002,0,0,29.217491149902344,1,1,1000,1000,1.880081,0,0.0010177710792049
1778785731.7792878,72964136,1,0.0011282101040706,0.0008586514741182,0.0013004256179556,-0.0039300839416682,-0.0009503084002062,-9.818614959716797,0,0,29.217491149902344,1,1,760,800,1.880081,0,0.0013004256179556
1778785731.819272,73004120,0,0.000991994747892,0.0010975948534905,0.0010209903120994,-0.0004838336026296,-5.704027717001736e-05,-9.816332817077637,0,0,29.21959686279297,1,1,1000,1000,1.920065,0,0.0010209903120994
1778785731.819272,73004120,1,0.0010660522384569,0.0009350617765448,0.0011072556953877,0.000545949791558,-0.0009053736575879,-9.818044662475586,0,0,29.21959686279297,1,1,760,800,1.920065,0,0.0011072556953877
1778785731.859256,73044104,0,0.0009931086096912,0.0010190749308094,0.0010245752055197,-0.0006315693026408,-0.0016226943116635,-9.818265914916992,0,0,29.221698760986328,1,1,1000,1000,1.960049,0,0.0010245752055197
1778785731.859256,73044104,1,0.001065241638571,0.0011417291825637,0.0008574296953156,-0.0034003350883722,0.0002516258391551,-9.818406105041504,0,0,29.221698760986328,1,1,760,800,1.960049,0,0.0008574296953156
1778785731.89924,73084088,0,0.0010530980071052,0.0010440505575388,0.0010259042028337,-0.0005394731415435,6.788976315874606e-05,-9.817217826843262,0,0,29.223804473876957,1,1,1000,1000,2.000033,0,0.0010259042028337
1778785731.89924,73084088,1,0.0009082719334401,0.0009412151994183,0.0008261463954113,-0.0017693920526653,0.0003477805003058,-9.815836906433104,0,0,29.223804473876957,1,1,760,800,2.000033,0,0.0008261463954113
1778785731.939224,73124072,0,0.0010944252135232,0.0010229202453047,0.0010621617548167,-0.000604310655035,-0.0001396353472955,-9.816505432128906,0,0,29.225906372070312,1,1,1000,1000,2.040017,0,0.0010621617548167
1778785731.939224,73124072,1,0.0011087567545473,0.0010588662698864,0.0009524916531518,-0.0023634429089725,-0.0017542428104206,-9.818906784057615,0,0,29.225906372070312,1,1,760,800,2.040017,0,0.0009524916531518
1778785731.979208,73164056,0,0.0010029864497482,0.0011130003258585,0.0010518708731979,-0.0007791953976266,-0.0003567470412235,-9.81737232208252,0,0,29.22806167602539,1,1,1000,1000,2.080001,0,0.0010518708731979
1778785731.979208,73164056,1,0.0010327277705073,0.0008709382964298,0.000921057537198,-0.0007900053751654,-0.0029840564820915,-9.818352699279783,0,0,29.228010177612305,1,1,760,800,2.080001,0,0.000921057537198
1778785732.019192,73204040,0,0.0011019265512004,0.0010606455616652,0.0010304304305464,-0.0013370587257668,-0.0009758577216416,-9.818082809448242,0,0,29.230165481567383,1,1,1000,1000,2.119985,0,0.0010304304305464
1778785732.019192,73204040,1,0.0011921926634386,0.000976109993644,0.0010286520700901,-0.0011549724731594,-0.0019804348703473,-9.818242073059082,0,0,29.230113983154297,1,1,760,800,2.119985,0,0.0010286520700901
1778785732.059176,73244024,0,0.0010372914839535,0.0010357355931773,0.0010869796387851,-0.0016818935982882,-0.000703445461113,-9.81785011291504,0,0,29.232267379760746,1,1,1000,1000,2.159969,0,0.0010869796387851
1778785732.059176,73244024,1,0.0007231290801428,0.0012760864337906,0.0012465004110708,-0.0023560908157378,0.0001461385254515,-9.816980361938477,0,0,29.232215881347656,1,1,760,800,2.159969,0,0.0012465004110708
1778785732.0999928,73284841,0,0.0010119456565007,0.0009818506659939,0.0009753603953868,-1.498800702393055e-05,-0.0014134219381958,-9.817731857299805,0,0,29.23437118530273,1,1,1000,1000,2.200786,0,0.0009753603953868
1778785732.0999928,73284841,1,0.0010839705355465,0.0009190740529447,0.0011925119906663,-0.0026794490404427,-0.0008865989511832,-9.818262100219728,0,0,29.23437118530273,1,1,760,800,2.200786,0,0.0011925119906663
1778785732.1399767,73324825,0,0.0010876657906919,0.0010389434173703,0.0010465281084179,-0.0011923409765586,-0.0005872977199032,-9.81888484954834,0,0,29.23647117614746,1,1,1000,1000,2.24077,0,0.0010465281084179
1778785732.1399767,73324825,1,0.0008279327303171,0.0010667126625776,0.0011985846795141,-0.0024626636877655,-0.0009996893350034,-9.817716598510742,0,0,29.23647117614746,1,1,760,800,2.24077,0,0.0011985846795141
1778785732.1799607,73364809,0,0.0009840338025242,0.0009647059487178,0.0009488302166573,-0.0010018917964771,-0.0002747022081166,-9.818509101867676,0,0,29.23857307434082,1,1,1000,1000,2.280754,0,0.0009488302166573
1778785732.1799607,73364809,1,0.0009840091224759,0.0010262717260047,0.0013136349152773,0.0012189361732453,8.824032556731254e-05,-9.81808853149414,0,0,29.23857307434082,1,1,760,800,2.280754,0,0.0013136349152773
1778785732.2199447,73404793,0,0.0009411063510924,0.0010753960814327,0.0011142288567498,-0.0009376637171953,-0.0007681748247705,-9.817230224609377,0,0,29.24067497253418,1,1,1000,1000,2.320738,0,0.0011142288567498
1778785732.2199447,73404793,1,0.0007570706075057,0.0012023577000945,0.0010507602710276,0.0022092838771641,-0.0028654374182224,-9.816583633422852,0,0,29.24067497253418,1,1,760,800,2.320738,0,0.0010507602710276
1778785732.2599287,73444777,0,0.0010030893608927,0.0009957385482266,0.000998287461698,-0.0022542139049619,-0.0008705090731382,-9.818422317504885,0,0,29.24277687072754,1,1,1000,1000,2.360722,0,0.000998287461698
1778785732.2599287,73444777,1,0.0007183306152001,0.0009919041767716,0.0011547228787094,0.0003077019937336,0.0014335041632875,-9.818297386169434,0,0,29.24277687072754,1,1,760,800,2.360722,0,0.0011547228787094
1778785732.2999127,73484761,0,0.0010280897840857,0.0010066309478133,0.0010306329932063,0.0002430404128972,-0.0006832090439274,-9.81756591796875,0,0,29.244876861572266,1,1,1000,1000,2.400706,0,0.0010306329932063
1778785732.2999127,73484761,1,0.0007671164348721,0.0012164324289187,0.0010537595953792,-0.0001920393260661,-0.0004577035724651,-9.816593170166016,0,0,29.244876861572266,1,1,760,800,2.400706,0,0.0010537595953792
1778785732.339897,73524745,0,0.0010416507720947,0.0010035827290266,0.0010383625049144,-0.000650379457511,-0.0015091961249709,-9.817034721374512,0,0,29.246978759765625,1,1,1000,1000,2.44069,0,0.0010383625049144
1778785732.339897,73524745,1,0.0010372591204941,0.0010429669637233,0.0007769401418045,-0.0047136023640632,-0.0002210790698882,-9.816049575805664,0,0,29.246978759765625,1,1,760,800,2.44069,0,0.0007769401418045
1778785732.379881,73564729,0,0.001083516399376,0.0010297738481312,0.0010446145897731,0.0001169045863207,-0.0015084837796166,-9.816786766052246,0,0,29.24907684326172,1,1,1000,1000,2.480674,0,0.0010446145897731
1778785732.379881,73564729,1,0.0008123989100567,0.0009264867985621,0.0010381613392382,-0.0004110719310119,-0.002391165588051,-9.81557273864746,0,0,29.24907684326172,1,1,760,800,2.480674,0,0.0010381613392382
1778785732.419865,73604713,0,0.0010096435435116,0.0010294229723513,0.0010904818773269,-0.0020354881417006,-0.0007989847799763,-9.817282676696776,0,0,29.251176834106445,1,1,1000,1000,2.520658,0,0.0010904818773269
1778785732.419865,73604713,1,0.0009781329426914,0.0009568452951498,0.0013206772273406,-0.0026734764687716,-0.001511636422947,-9.819361686706545,0,0,29.251176834106445,1,1,760,800,2.520658,0,0.0013206772273406
1778785732.4598489,73644697,0,0.0010503048542886,0.0010575337801128,0.0010370645904913,-0.0016884820070117,-0.0009796830127015,-9.816886901855469,0,0,29.25327682495117,1,1,1000,1000,2.560642,0,0.0010370645904913
1778785732.4598489,73644697,1,0.0012862917501479,0.0010747812921181,0.0010475765448063,0.0001926516852108,0.000706240418367,-9.820446014404297,0,0,29.25327682495117,1,1,760,800,2.560642,0,0.0010475765448063
1778785732.4998329,73684681,0,0.0010666160378605,0.001084107439965,0.0010416838340461,-0.000437774695456,-0.0001793483097571,-9.818185806274414,0,0,29.2553768157959,1,1,1000,1000,2.600626,0,0.0010416838340461
1778785732.4998329,73684681,1,0.0012950751697644,0.0012368003372102,0.0010031969286501,-0.0028306548483669,0.0026695523411035,-9.8208646774292,0,0,29.2553768157959,1,1,760,800,2.600626,0,0.0010031969286501
1778785732.5398169,73724665,0,0.0010404833592474,0.0010013743303716,0.0010840962640941,-0.0015992706175893,-1.7404614482074976e-05,-9.818017959594728,0,0,29.257476806640625,1,1,1000,1000,2.64061,0,0.0010840962640941
1778785732.5398169,73724665,1,0.0010878108441829,0.0012267830315977,0.0009800373809412,-0.0014887382276356,3.5098470107186586e-05,-9.817445755004885,0,0,29.257476806640625,1,1,760,800,2.64061,0,0.0009800373809412
1778785732.5798008,73764649,0,0.0010663914727047,0.0010477507021278,0.0010493909940123,-0.0004935062024742,-0.0019750334322452,-9.81820297241211,0,0,29.25957489013672,1,1,1000,1000,2.680594,0,0.0010493909940123
1778785732.5798008,73764649,1,0.0010351325618103,0.0008899771491996,0.0009742427500896,-0.0029698521830141,0.0013258794788271,-9.81922721862793,0,0,29.25957489013672,1,1,760,800,2.680594,0,0.0009742427500896
1778785732.6197848,73804633,0,0.0010312950471416,0.0010159746743738,0.0010930004063993,-0.0009079666924662,-0.0009552389383316,-9.817499160766602,0,0,29.26167297363281,1,1,1000,1000,2.720578,0,0.0010930004063993
1778785732.6197848,73804633,1,0.0004804584023077,0.0010236809030175,0.0010980531806126,-0.0024212643038481,-0.001428794930689,-9.81560230255127,0,0,29.26167297363281,1,1,760,800,2.720578,0,0.0010980531806126
1778785732.6597688,73844617,0,0.0009732502512633,0.0010515566682443,0.0010568376164883,-0.0004933869931846,-0.0011216716375201,-9.816731452941896,0,0,29.263771057128903,1,1,1000,1000,2.760562,0,0.0010568376164883
1778785732.6597688,73844617,1,0.0010935377795249,0.0009424794116057,0.0011753411963582,-0.0019633113406598,0.0003579385811462,-9.818583488464355,0,0,29.263771057128903,1,1,760,800,2.760562,0,0.0011753411963582
1778785732.699753,73884601,0,0.0010647574672475,0.001016269205138,0.0010674891527742,-0.0011113514192402,-0.0011124704033136,-9.818685531616213,0,0,29.265869140625,1,1,1000,1000,2.800546,0,0.0010674891527742
1778785732.699753,73884601,1,0.0009712605387903,0.0013129846192896,0.0011907127918675,-0.0013892303686589,6.87198480591178e-05,-9.817813873291016,0,0,29.265869140625,1,1,760,800,2.800546,0,0.0011907127918675
1778785732.739737,73924585,0,0.001074134139344,0.0010378111619502,0.001044776989147,-0.0015369136817753,-0.0005932950880378,-9.817363739013672,0,0,29.267967224121094,1,1,1000,1000,2.84053,0,0.001044776989147
1778785732.739737,73924585,1,0.001144683570601,0.0010210229083895,0.0008640337618999,0.0004905707901343,-0.0009602830396033,-9.817615509033203,0,0,29.267967224121094,1,1,760,800,2.84053,0,0.0008640337618999
1778785732.779721,73964569,0,0.0010258720722049,0.0011108112521469,0.0011293715797364,-0.0014733769930899,-0.0006446603219956,-9.818148612976074,0,0,29.270065307617188,1,1,1000,1000,2.880514,0,0.0011293715797364
1778785732.779721,73964569,1,0.0010350360535085,0.0011469665914773,0.0010501084616407,-0.0018338738009333,0.000914690666832,-9.8157377243042,0,0,29.270065307617188,1,1,760,800,2.880514,0,0.0010501084616407
1778785732.819705,74004553,0,0.0010818941518664,0.0010740883881226,0.0010542292147874,-0.0012441009748727,0.0001601479016244,-9.818207740783691,0,0,29.27216148376465,1,1,1000,1000,2.920498,0,0.0010542292147874
1778785732.819705,74004553,1,0.0009145117364823,0.0012730553280562,0.0009579913457855,0.0004498144553508,-0.0016972715966403,-9.816694259643556,0,0,29.27216148376465,1,1,760,800,2.920498,0,0.0009579913457855
1778785732.859689,74044537,0,0.0010525721590965,0.0010339652653783,0.0010536848567426,-0.001203148625791,-0.0009399770060554,-9.816862106323242,0,0,29.27425765991211,1,1,1000,1000,2.960482,0,0.0010536848567426
1778785732.859689,74044537,1,0.0010754525428637,0.0010763746686279,0.0011349244741722,-0.0019585685804486,-0.0025094579905271,-9.81725025177002,0,0,29.27425765991211,1,1,760,800,2.960482,0,0.0011349244741722
1778785732.8996727,74084521,0,0.0011029249290004,0.001105613540858,0.0010067217517644,-0.0011788150295615,-0.0001486246765125,-9.817140579223633,0,0,29.276355743408203,1,1,1000,1000,3.000466,0,0.0010067217517644
1778785732.8996727,74084521,1,0.0009483277099207,0.0008580626454204,0.0012516252463683,-0.0010641593253239,0.0020578256808221,-9.818936347961426,0,0,29.276355743408203,1,1,760,800,3.000466,0,0.0012516252463683
1778785732.9396567,74124505,0,0.001018161419779,0.0010319226421415,0.0010995561024174,-0.0020152118522673,-0.0006658052443526,-9.817535400390623,0,0,29.278451919555664,1,1,1000,1000,3.04045,0,0.0010995561024174
1778785732.9396567,74124505,1,0.0009453894454054,0.0010817333823069,0.0011678849114105,0.0011427935678511,0.0004823240160476,-9.820655822753906,0,0,29.278451919555664,1,1,760,800,3.04045,0,0.0011678849114105
1778785732.9796407,74164489,0,0.0010822908952832,0.0011249784147366,0.0010524757672101,-0.0006415657117031,-0.0008678041631355,-9.817513465881348,0,0,29.280548095703125,1,1,1000,1000,3.080434,0,0.0010524757672101
1778785732.9796407,74164489,1,0.0007387233199551,0.0010779965668916,0.0008852152968756,-0.000731959065888,-0.0009930692613124,-9.818476676940918,0,0,29.280548095703125,1,1,760,800,3.080434,0,0.0008852152968756
1778785733.0196247,74204473,0,0.001040197093971,0.0010425001382827,0.0009994411375373,-0.0006994614377617,-0.0008866212447173,-9.817132949829102,0,0,29.282644271850582,1,1,1000,1000,3.120418,0,0.0009994411375373
1778785733.0196247,74204473,1,0.000867594149895,0.0012679556384682,0.0008653121767565,0.000543184345588,-0.001460648374632,-9.816522598266602,0,0,29.282644271850582,1,1,760,800,3.120418,0,0.0008653121767565
1778785733.0596087,74244457,0,0.0010076032485812,0.0010295381071045,0.0010554282926023,-0.0003955856664106,-0.0015561699401587,-9.816940307617188,0,0,29.284740447998047,1,1,1000,1000,3.160402,0,0.0010554282926023
1778785733.0596087,74244457,1,0.0011092836502939,0.0012252063024789,0.000981063931249,-0.0015109062660485,0.0023096222430467,-9.816534042358398,0,0,29.284740447998047,1,1,760,800,3.160402,0,0.000981063931249
1778785733.0995927,74284441,0,0.001075567677617,0.0010321931913495,0.0009842690778896,-0.0010402537882328,-0.0008697467856109,-9.818122863769531,0,0,29.286834716796875,1,1,1000,1000,3.200386,0,0.0009842690778896
1778785733.0995927,74284441,1,0.0011814322788268,0.0011675953865051,0.0011192591628059,-0.0022285999730229,0.0004613172786775,-9.817041397094728,0,0,29.286834716796875,1,1,760,800,3.200386,0,0.0011192591628059
1778785733.139577,74324425,0,0.0010933898156508,0.0011646945495158,0.0009924464393407,0.0001186290901387,-0.0013664946891367,-9.817474365234377,0,0,29.288928985595703,1,1,1000,1000,3.24037,0,0.0009924464393407
1778785733.139577,74324425,1,0.0009502893080934,0.0010596392676234,0.0012084989575669,-0.0026230935472995,0.0018605849472805,-9.818974494934082,0,0,29.288928985595703,1,1,760,800,3.24037,0,0.0012084989575669
1778785733.179561,74364409,0,0.0009845604654401,0.0011044829152524,0.0011675171554088,-0.000647634267807,-0.0009216592297889,-9.816497802734377,0,0,29.29102325439453,1,1,1000,1000,3.280354,0,0.0011675171554088
1778785733.179561,74364409,1,0.0011493848869577,0.001016090856865,0.0011729910038411,-0.000406517938245,-0.0036291216965764,-9.817925453186035,0,0,29.29102325439453,1,1,760,800,3.280354,0,0.0011729910038411
1778785733.219545,74404393,0,0.0010525486432015,0.0009762523695826,0.0010023846989497,-3.1006973586045206e-05,-0.0010947413975372,-9.817737579345703,0,0,29.29311752319336,1,1,1000,1000,3.320338,0,0.0010023846989497
1778785733.219545,74404393,1,0.0009804985020309,0.0011406155535951,0.0008822553791105,-0.0016556640621274,-0.0009874376701191,-9.81670379638672,0,0,29.29311752319336,1,1,760,800,3.320338,0,0.0008822553791105
1778785733.2595289,74444377,0,0.0010812066029757,0.0011402682866901,0.0009844289161264,-0.0009280447848141,-0.0008338071056641,-9.818486213684082,0,0,29.29521369934082,1,1,1000,1000,3.360322,0,0.0009844289161264
1778785733.2595289,74444377,1,0.0011025317944586,0.0007614558562636,0.0008638380095362,-0.0019170370651409,-0.0016437324229627,-9.818731307983398,0,0,29.29521369934082,1,1,760,800,3.360322,0,0.0008638380095362
1778785733.2995129,74484361,0,0.0010656070662662,0.001029334613122,0.0010717987315729,-0.0009153588907793,-0.0010502366349101,-9.818809509277344,0,0,29.297306060791016,1,1,1000,1000,3.400306,0,0.0010717987315729
1778785733.2995129,74484361,1,0.0011125425808131,0.0014139394043013,0.0009621466742828,-0.0014027134748175,0.0001357149594696,-9.817815780639648,0,0,29.297306060791016,1,1,760,800,3.400306,0,0.0009621466742828
1778785733.3394969,74524345,0,0.0010619339300319,0.0010545041877776,0.0010646488517522,-0.0015054628020152,-0.0008590290672145,-9.817814826965332,0,0,29.299400329589844,1,1,1000,1000,3.44029,0,0.0010646488517522
1778785733.3394969,74524345,1,0.0009943539043888,0.0010764217004179,0.0008001683745533,-0.0015630278503522,-0.0009112552506849,-9.818204879760742,0,0,29.299400329589844,1,1,760,800,3.44029,0,0.0008001683745533
1778785733.3794808,74564329,0,0.001065086456947,0.0010223874123767,0.0010692457435652,-0.0013829621020704,-0.0005403527757152,-9.816970825195312,0,0,29.30149269104004,1,1,1000,1000,3.480274,0,0.0010692457435652
1778785733.3794808,74564329,1,0.0009964088676497,0.001014013425447,0.0011018629884347,-0.0032740773167461,0.0003215590550098,-9.816904067993164,0,0,29.30149269104004,1,1,760,800,3.480274,0,0.0011018629884347
1778785733.4194648,74604313,0,0.001040389528498,0.0010673197684809,0.0010834843851625,-0.0011935055954381,-0.0011662525357678,-9.817985534667969,0,0,29.303586959838867,1,1,1000,1000,3.520258,0,0.0010834843851625
1778785733.4194648,74604313,1,0.0010132367024198,0.0009706259006634,0.0010001544142141,-0.0028275162912905,-0.0017238153377547,-9.818585395812988,0,0,29.303586959838867,1,1,760,800,3.520258,0,0.0010001544142141
1778785733.4594488,74644297,0,0.0010212966008111,0.0010224137222394,0.0010985063854604,-0.0017185611650347,-0.0005361912772059,-9.817222595214844,0,0,29.305679321289062,1,1,1000,1000,3.560242,0,0.0010985063854604
1778785733.4594488,74644297,1,0.0010167274158447,0.0012447701301425,0.0012926636263728,-0.0006116070435382,1.4816872862866148e-05,-9.817009925842283,0,0,29.305679321289062,1,1,760,800,3.560242,0,0.0012926636263728
1778785733.499433,74684281,0,0.0010179737582802,0.0010421073529869,0.0010103263193741,-0.0010877891909331,-0.0001412586279911,-9.818076133728027,0,0,29.307771682739254,1,1,1000,1000,3.600226,0,0.0010103263193741
1778785733.499433,74684281,1,0.0011029932647943,0.001053282059729,0.0012307870201766,-0.0002448956656735,-0.0021765879355371,-9.816864967346191,0,0,29.307771682739254,1,1,760,800,3.600226,0,0.0012307870201766
1778785733.539417,74724265,0,0.001097084255889,0.0010031613055616,0.0010839160531759,-0.0012412583455443,-0.0001777263387339,-9.816808700561523,0,0,29.309864044189453,1,1,1000,1000,3.64021,0,0.0010839160531759
1778785733.539417,74724265,1,0.0010801907628774,0.0012559057213366,0.0009260603110305,-0.0002087705652229,-0.0018384640570729,-9.814315795898438,0,0,29.309864044189453,1,1,760,800,3.64021,0,0.0009260603110305
1778785733.579401,74764249,0,0.0010390968527644,0.0009998213499784,0.0010956696933135,-0.001060141948983,-0.0009041656740009,-9.817707061767578,0,0,29.31195640563965,1,1,1000,1000,3.680194,0,0.0010956696933135
1778785733.579401,74764249,1,0.00095117429737,0.0010267604375258,0.0012206182582303,-0.0027902787551283,-0.0026772089768201,-9.81848430633545,0,0,29.31195640563965,1,1,760,800,3.680194,0,0.0012206182582303
1778785733.619385,74804233,0,0.0010906816460192,0.0010064106900244,0.000994675909169,-0.0007823603809811,-0.0011611237423494,-9.817581176757812,0,0,29.313995361328125,1,1,1000,1000,3.720178,0,0.000994675909169
1778785733.619385,74804233,1,0.0012061145389452,0.0012148052919656,0.0012101740576326,0.0017341268248856,-0.0014444824773818,-9.816607475280762,0,0,29.313995361328125,1,1,760,800,3.720178,0,0.0012101740576326
1778785733.6593688,74844217,0,0.0010594062041491,0.0009916501585394,0.0011018440127372,-0.0014124908484518,-0.000306021713186,-9.817821502685549,0,0,29.316085815429688,1,1,1000,1000,3.760162,0,0.0011018440127372
1778785733.6593688,74844217,1,0.0008817960624583,0.0011909052263945,0.0013544675894081,0.001514462986961,0.0008728465763852,-9.81829833984375,0,0,29.316085815429688,1,1,760,800,3.760162,0,0.0013544675894081
1778785733.6993527,74884201,0,0.001000766409561,0.0010304414900019,0.0010279003763571,-0.0012822056887671,-0.0021793888881802,-9.817999839782717,0,0,29.31817626953125,1,1,1000,1000,3.800146,0,0.0010279003763571
1778785733.6993527,74884201,1,0.0008908591116778,0.0011393995955586,0.0011127749457955,-0.0015425465535372,-0.0008818403584882,-9.81912612915039,0,0,29.31817626953125,1,1,760,800,3.800146,0,0.0011127749457955
1778785733.7393367,74924185,0,0.001071301405318,0.0010937995975837,0.0010579472873359,-0.0014198424760252,-0.0003562621423043,-9.817584991455078,0,0,29.32026672363281,1,1,1000,1000,3.84013,0,0.0010579472873359
1778785733.7393367,74924185,1,0.0009034214308485,0.0008464499842375,0.0011892332695424,-0.0001244651211891,-0.0018114272970706,-9.816052436828612,0,0,29.32026672363281,1,1,760,800,3.84013,0,0.0011892332695424
1778785733.7793207,74964169,0,0.0011110927443951,0.0010864129289984,0.00097671081312,-0.0014977499376982,0.0004681968712247,-9.817789077758787,0,0,29.32235717773437,1,1,1000,1000,3.880114,0,0.00097671081312
1778785733.7793207,74964169,1,0.0009113154374063,0.0009698177454993,0.0012092352844774,-0.002957459539175,-0.0007638919632881,-9.819031715393066,0,0,29.32235717773437,1,1,760,800,3.880114,0,0.0012092352844774
1778785733.8193047,75004153,0,0.0010446195956319,0.0010426770895719,0.0010840583126991,-0.0008956688689067,-0.0009010706562548,-9.817720413208008,0,0,29.32444953918457,1,1,1000,1000,3.920098,0,0.0010840583126991
1778785733.8193047,75004153,1,0.0010326083283871,0.0011288404930382,0.0010117463534697,-0.0019003609195351,-0.0002776772598735,-9.817564964294434,0,0,29.32444953918457,1,1,760,800,3.920098,0,0.0010117463534697
1778785733.8592887,75044137,0,0.0010306232143193,0.0010526209371164,0.0011011136230081,-0.0010495762107893,-0.0002427956205792,-9.816848754882812,0,0,29.3265380859375,1,1,1000,1000,3.960082,0,0.0011011136230081
1778785733.8592887,75044137,1,0.0009567687520757,0.0011313515715301,0.0011127640027552,-0.0020263195037841,-0.0023454250767827,-9.816920280456545,0,0,29.3265380859375,1,1,760,800,3.960082,0,0.0011127640027552
1778785733.899273,75084121,0,0.0011055769864469,0.0010575911728665,0.0010111288866028,-0.0015996398869901,-0.0002944492152892,-9.818191528320312,0,0,29.328628540039062,1,1,1000,1000,4.000066,0,0.0010111288866028
1778785733.899273,75084121,1,0.0012791069457307,0.0009337916853837,0.0010742383310571,0.0003182297514285,-0.0009577883756719,-9.816610336303713,0,0,29.328628540039062,1,1,760,800,4.000066,0,0.0010742383310571
1778785733.939257,75124105,0,0.0010926182148978,0.0010854651918634,0.0011269501410424,-0.0007493566954508,-0.0015743584372103,-9.81919288635254,0,0,29.330717086791992,1,1,1000,1000,4.04005,0,0.0011269501410424
1778785733.939257,75124105,1,0.0012873619562014,0.0012177750468254,0.0012304809642955,-0.0009232979500666,-0.0006210173014551,-9.815423965454102,0,0,29.330717086791992,1,1,760,800,4.04005,0,0.0012304809642955
1778785733.979241,75164089,0,0.0010946586262434,0.001080579822883,0.0011742940405383,-0.0004862878413405,-0.0011862217215821,-9.817790985107422,0,0,29.332807540893555,1,1,1000,1000,4.080034,0,0.0011742940405383
1778785733.979241,75164089,1,0.0009096946450881,0.0008820098009891,0.0010191226610913,-0.0019306781468912,-0.0003918105503544,-9.818723678588867,0,0,29.332807540893555,1,1,760,800,4.080034,0,0.0010191226610913
1778785734.019225,75204073,0,0.0010128227295354,0.0010858209570869,0.0010350436205044,-0.0014490046305581,-0.0002486433368176,-9.81760025024414,0,0,29.334896087646484,1,1,1000,1000,4.120018,0,0.0010350436205044
1778785734.019225,75204073,1,0.0010172431357204,0.000951892172452,0.0011872102040797,-0.0045284423977136,0.0003608588594943,-9.815633773803713,0,0,29.334896087646484,1,1,760,800,4.120018,0,0.0011872102040797
1778785734.0592089,75244057,0,0.0009558259625919,0.0010873733554035,0.001091175712645,-0.0023180625867098,0.0009856626857072,-9.8169584274292,0,0,29.3370361328125,1,1,1000,1000,4.160002,0,0.001091175712645
1778785734.0592089,75244057,1,0.0011187258642166,0.0009380474220961,0.0010326828341931,-5.432712350739166e-05,-0.0031529201660305,-9.813719749450684,0,0,29.33698463439941,1,1,760,800,4.160002,0,0.0010326828341931
1778785734.0991929,75284041,0,0.0009842158760875,0.0010345235932618,0.0010554812615737,-0.0007792937685735,-0.0010832012630999,-9.81828784942627,0,0,29.3391227722168,1,1,1000,1000,4.199986,0,0.0010554812615737
1778785734.0991929,75284041,1,0.0012316333595663,0.0010017341701313,0.0010354311671108,-0.0038621856365352,0.0003324764547869,-9.815752983093262,0,0,29.339073181152344,1,1,760,800,4.199986,0,0.0010354311671108
1778785734.1391768,75324025,0,0.0010747333290055,0.0010432584676891,0.0010607263538986,-0.0004941708757542,-0.0010183632839471,-9.817219734191896,0,0,29.34121322631836,1,1,1000,1000,4.23997,0,0.0010607263538986
1778785734.1391768,75324025,1,0.0009872537339106,0.0008751129498705,0.0012967428192496,-0.0019712501671165,-3.095266947639175e-05,-9.81948947906494,0,0,29.34115982055664,1,1,760,800,4.23997,0,0.0012967428192496
1778785734.1799939,75364842,0,0.0011059724492952,0.0010155421914532,0.0010859412141144,0.0001339022419415,-0.0013428914826363,-9.817617416381836,0,0,29.343299865722656,1,1,1000,1000,4.280787,0,0.0010859412141144
1778785734.1799939,75364842,1,0.0009463763562962,0.0008273946586996,0.0009375650552101,-0.0020439194049686,-0.0042799576185643,-9.817530632019045,0,0,29.343299865722656,1,1,760,800,4.280787,0,0.0009375650552101
1778785734.2199779,75404826,0,0.0010473566362634,0.0009875650284811,0.0010801984462887,-0.0016613856423646,-0.0011349165579304,-9.817249298095703,0,0,29.345386505126957,1,1,1000,1000,4.320771,0,0.0010801984462887
1778785734.2199779,75404826,1,0.0011669578962028,0.0010634702630341,0.0011826237896457,-0.0005890717147849,-0.0014939492102712,-9.816600799560549,0,0,29.345386505126957,1,1,760,800,4.320771,0,0.0011826237896457
1778785734.2599618,75444810,0,0.0010442842030897,0.0010849472600966,0.0010113117750734,-0.0006782303098589,-0.0013781046727672,-9.817944526672363,0,0,29.347475051879883,1,1,1000,1000,4.360755,0,0.0010113117750734
1778785734.2599618,75444810,1,0.0010802813339978,0.0009329725289717,0.0011586180189624,0.0002353917225264,-0.0030318091157823,-9.817034721374512,0,0,29.347475051879883,1,1,760,800,4.360755,0,0.0011586180189624
1778785734.2999458,75484794,0,0.0010474706068634,0.0010422968771308,0.0011148516787216,-0.0011288967216387,0.0003846405597869,-9.818503379821776,0,0,29.349559783935547,1,1,1000,1000,4.400739,0,0.0011148516787216
1778785734.2999458,75484794,1,0.0010301459114998,0.0008874427294358,0.0010192189365625,-0.0008802020456641,-0.0002331808791495,-9.818254470825195,0,0,29.349559783935547,1,1,760,800,4.400739,0,0.0010192189365625
1778785734.3399298,75524778,0,0.0011401891242712,0.0010533146560192,0.0011250779498368,-0.0011953517096117,-0.0007695418898947,-9.817577362060549,0,0,29.35164833068848,1,1,1000,1000,4.440723,0,0.0011250779498368
1778785734.3399298,75524778,1,0.0009276192868128,0.0013514157617464,0.0011211945675313,0.000674994662404,-0.0026022414676845,-9.81789779663086,0,0,29.35164833068848,1,1,760,800,4.440723,0,0.0011211945675313
1778785734.379914,75564762,0,0.0010268149198964,0.0010858175810426,0.0011052404297515,-0.0009237770573236,-0.0010017323074862,-9.817673683166504,0,0,29.35373306274414,1,1,1000,1000,4.480707,0,0.0011052404297515
1778785734.379914,75564762,1,0.0009509499650448,0.0010266891913488,0.0010322803864255,0.000113195987069,-0.0002907943562604,-9.818845748901367,0,0,29.35373306274414,1,1,760,800,4.480707,0,0.0010322803864255
1778785734.419898,75604746,0,0.0010864129289984,0.0010663627181202,0.0010721897706389,-0.0004071615112479,1.417556995875202e-05,-9.81756591796875,0,0,29.35581970214844,1,1,1000,1000,4.520691,0,0.0010721897706389
1778785734.419898,75604746,1,0.0013496843166649,0.0010025720112025,0.00111959525384,-0.0020740716718137,-0.0026546700391918,-9.819766998291016,0,0,29.35581970214844,1,1,760,800,4.520691,0,0.00111959525384
1778785734.459882,75644730,0,0.001090102829039,0.001124944537878,0.0010194693459197,-0.0008018881781026,-0.0004232443170621,-9.816650390625,0,0,29.35790634155273,1,1,1000,1000,4.560675,0,0.0010194693459197
1778785734.459882,75644730,1,0.0008018012158572,0.000975124828983,0.000907287641894,-0.0002145926700904,-0.0025536557659506,-9.817566871643066,0,0,29.35790634155273,1,1,760,800,4.560675,0,0.000907287641894
1778785734.499866,75684714,0,0.0011673150584101,0.0011493479833006,0.0010428370442241,-0.0001994637277675,-0.0016734577948227,-9.81626319885254,0,0,29.3599910736084,1,1,1000,1000,4.600659,0,0.0010428370442241
1778785734.499866,75684714,1,0.0012114752316847,0.0011431295424699,0.0008674169075675,-0.0015090142842382,-0.0026159840635955,-9.816368103027344,0,0,29.3599910736084,1,1,760,800,4.600659,0,0.0008674169075675
1778785734.53985,75724698,0,0.0010356595739722,0.0010000115726143,0.0010800653835758,-0.0003971381811425,-0.0029046989511698,-9.816965103149414,0,0,29.36207771301269,1,1,1000,1000,4.640643,0,0.0010800653835758
1778785734.53985,75724698,1,0.0011136528337374,0.0012101654428988,0.0009734309278428,-0.0027573120314627,-0.0027795862406492,-9.817779541015623,0,0,29.36207771301269,1,1,760,800,4.640643,0,0.0009734309278428
1778785734.579834,75764682,0,0.0010257853427901,0.0010800084564834,0.0010652132332324,-0.0018828262109309,-0.0010416631121188,-9.817153930664062,0,0,29.36416244506836,1,1,1000,1000,4.680627,0,0.0010652132332324
1778785734.579834,75764682,1,0.000880520849023,0.0009780777618288,0.000895464385394,-0.0020915661007165,-0.0005093900836072,-9.817482948303224,0,0,29.36416244506836,1,1,760,800,4.680627,0,0.000895464385394
1778785734.619818,75804666,0,0.0010646320879459,0.0011035173665732,0.0010493020527064,-0.0009181441855616,-0.0006305790157057,-9.81724452972412,0,0,29.36624526977539,1,1,1000,1000,4.720611,0,0.0010493020527064
1778785734.619818,75804666,1,0.0011531074997037,0.0013260503765195,0.0011504066642373,-0.0017688869265839,-0.0001528090797364,-9.816768646240234,0,0,29.36624526977539,1,1,760,800,4.720611,0,0.0011504066642373
1778785734.659802,75844650,0,0.0010516206966713,0.0010837311856448,0.0010262893047183,-0.0013144984841346,-0.0011170535581186,-9.817203521728516,0,0,29.36833000183105,1,1,1000,1000,4.760595,0,0.0010262893047183
1778785734.659802,75844650,1,0.0007985384436324,0.0011267635272815,0.0009251123992726,7.954981992952526e-05,0.0006133649731054,-9.818449020385742,0,0,29.36833000183105,1,1,760,800,4.760595,0,0.0009251123992726
1778785734.699786,75884634,0,0.0010662217391654,0.0010727893095463,0.0010121228406205,-0.0016697130631655,-0.0010236826492473,-9.816852569580078,0,0,29.37041473388672,1,1,1000,1000,4.800579,0,0.0010121228406205
1778785734.699786,75884634,1,0.0012530786916613,0.0012119875755161,0.0009982126066461,-0.0018953735707327,-0.0018057324923574,-9.817453384399414,0,0,29.37041473388672,1,1,760,800,4.800579,0,0.0009982126066461
1778785734.73977,75924618,0,0.0010919801425188,0.0011043635895475,0.001052998821251,-0.001053889747709,-0.0016335903201252,-9.817065238952637,0,0,29.372499465942383,1,1,1000,1000,4.840563,0,0.001052998821251
1778785734.73977,75924618,1,0.0010749497450888,0.0010575900087133,0.0010535434121266,-0.0002891584299504,-0.0005299129406921,-9.816849708557127,0,0,29.372499465942383,1,1,760,800,4.840563,0,0.0010535434121266
1778785734.779754,75964602,0,0.001088855206035,0.0011047630105167,0.0010621801484376,-0.001525193452835,-0.0008152684313245,-9.81821060180664,0,0,29.37458229064941,1,1,1000,1000,4.880547,0,0.0010621801484376
1778785734.779754,75964602,1,0.0008635495905764,0.0009566139779053,0.0012736519565805,-0.000103811151348,-0.0020660927984863,-9.817821502685549,0,0,29.37458229064941,1,1,760,800,4.880547,0,0.0012736519565805
1778785734.819738,76004586,0,0.0011041943216696,0.0010910778073593,0.0011209452059119,-0.0002762502699624,-0.0008781742653809,-9.81672477722168,0,0,29.376665115356445,1,1,1000,1000,4.920531,0,0.0011209452059119
1778785734.819738,76004586,1,0.000761195202358,0.0011453106999397,0.0011067362502217,-0.003702332265675,-0.0009705858537927,-9.818045616149902,0,0,29.376665115356445,1,1,760,800,4.920531,0,0.0011067362502217
1778785734.859722,76044570,0,0.0010966996196657,0.0010479361517354,0.0010591530008241,-0.0006287773139774,-0.0010497004259377,-9.81757354736328,0,0,29.37874794006348,1,1,1000,1000,4.960515,0,0.0010591530008241
1778785734.859722,76044570,1,0.0011181997833773,0.00102994882036,0.0009400065755471,-0.001096754334867,-0.0021013561636209,-9.819229125976562,0,0,29.37874794006348,1,1,760,800,4.960515,0,0.0009400065755471
1778785734.899706,76084554,0,0.0010631359182298,0.0010378480656072,0.0010691476054489,-0.0018167084781453,-0.001806448912248,-9.817997932434082,0,0,29.38083267211914,1,1,1000,1000,5.000499,0,0.0010691476054489
1778785734.899706,76084554,1,0.0007822157349437,0.0011595907853916,0.00108831259422,-2.9526001526392065e-05,0.0006500905146822,-9.818917274475098,0,0,29.38083267211914,1,1,760,800,5.000499,0,0.00108831259422
1778785734.9396899,76124538,0,0.0009981975890696,0.0010769078508019,0.0010725551983341,-0.0012356373481452,-0.001515973592177,-9.818538665771484,0,0,29.38291358947754,1,1,1000,1000,5.040483,0,0.0010725551983341
1778785734.9396899,76124538,1,0.0012506798375397,0.0012311263708397,0.0007310330984182,0.0036948747001588,-0.0024900881107896,-9.816177368164062,0,0,29.38291358947754,1,1,760,800,5.040483,0,0.0007310330984182
1778785734.9796739,76164522,0,0.0011152650695294,0.0010748328641057,0.0010545856785029,-0.0022010242100805,-0.000473492022138,-9.818157196044922,0,0,29.384994506835938,1,1,1000,1000,5.080467,0,0.0010545856785029
1778785734.9796739,76164522,1,0.0012286718701943,0.0011000521481037,0.0008977696998044,0.0005871792091056,-0.0019228856544941,-9.8157958984375,0,0,29.384994506835938,1,1,760,800,5.080467,0,0.0008977696998044
1778785735.0196579,76204506,0,0.0010925348615273,0.0010490443091839,0.0010133744217455,0.0001900421921163,8.269950922112912e-05,-9.817632675170898,0,0,29.38707733154297,1,1,1000,1000,5.120451,0,0.0010133744217455
1778785735.0196579,76204506,1,0.0012401385465636,0.0010877782478928,0.000997083261609,-0.0043720640242099,-0.0037675462663173,-9.816457748413086,0,0,29.38707733154297,1,1,760,800,5.120451,0,0.000997083261609
1778785735.0596418,76244490,0,0.0010760291479527,0.0010178830707445,0.0010608673328533,2.8764508897438645e-05,-0.0004234241205267,-9.817998886108398,0,0,29.38916015625,1,1,1000,1000,5.160435,0,0.0010608673328533
1778785735.0596418,76244490,1,0.0008893341291695,0.0012985162902623,0.0011570543283596,-0.0014306552475318,-0.0023153652437031,-9.818266868591309,0,0,29.38916015625,1,1,760,800,5.160435,0,0.0011570543283596
1778785735.0996258,76284474,0,0.0010299056302756,0.0010306598851457,0.0010630796896293,-0.0014158594422042,-0.0020228205248713,-9.81766128540039,0,0,29.3912410736084,1,1,1000,1000,5.200419,0,0.0010630796896293
1778785735.0996258,76284474,1,0.0010918482439592,0.0011899938108399,0.001040548318997,-0.002824084367603,-0.0012383462162688,-9.815593719482422,0,0,29.3912410736084,1,1,760,800,5.200419,0,0.001040548318997
1778785735.1396098,76324458,0,0.001090544858016,0.0010787758510559,0.0010393689153715,-0.0012672450393438,-0.0012553363339975,-9.818767547607422,0,0,29.3933219909668,1,1,1000,1000,5.240403,0,0.0010393689153715
1778785735.1396098,76324458,1,0.0011582393199205,0.0013253520010039,0.0011125628370791,-0.0014093709178268,-0.0017407800769433,-9.81863784790039,0,0,29.3933219909668,1,1,760,800,5.240403,0,0.0011125628370791
1778785735.179594,76364442,0,0.0011166023323312,0.0011132031213492,0.0010655506048351,-0.0009251944138668,-0.0005045369034633,-9.817566871643066,0,0,29.395402908325195,1,1,1000,1000,5.280387,0,0.0010655506048351
1778785735.179594,76364442,1,0.0011525698937475,0.0010795663110911,0.0010296379914507,-0.0040107802487909,-0.0014404037501662,-9.818081855773926,0,0,29.395402908325195,1,1,760,800,5.280387,0,0.0010296379914507
1778785735.219578,76404426,0,0.0010831500403583,0.0010049937991425,0.0011475821956992,-0.0012300508096814,8.1139340181835e-05,-9.817710876464844,0,0,29.397483825683597,1,1,1000,1000,5.320371,0,0.0011475821956992
1778785735.219578,76404426,1,0.0013304778840392,0.0013640988618135,0.0011985765304416,-0.00274303345941,-0.001254167756997,-9.818319320678713,0,0,29.397483825683597,1,1,760,800,5.320371,0,0.0011985765304416
1778785735.259562,76444410,0,0.0010597967775538,0.0010976723860949,0.0010696456301957,-0.0009474462713114,-0.0010605844436213,-9.817330360412598,0,0,29.39956283569336,1,1,1000,1000,5.360355,0,0.0010696456301957
1778785735.259562,76444410,1,0.0010265569435432,0.0009653543820604,0.0012739949161186,-0.0029982372652739,0.0015741919633001,-9.818197250366213,0,0,29.39956283569336,1,1,760,800,5.360355,0,0.0012739949161186
1778785735.299546,76484394,0,0.0011252223048359,0.0010930562857538,0.0010910632554441,-0.000566175323911,-0.0006243819370865,-9.817309379577637,0,0,29.40164375305176,1,1,1000,1000,5.400339,0,0.0010910632554441
1778785735.299546,76484394,1,0.0010842584306374,0.0008869642624631,0.0010268243495374,-0.0016169213922694,-0.000439361523604,-9.817599296569824,0,0,29.40164375305176,1,1,760,800,5.400339,0,0.0010268243495374
1778785735.33953,76524378,0,0.0011111273197457,0.0011046137660741,0.0011341063072904,-0.0017245301278308,-0.0010883830254897,-9.817350387573242,0,0,29.403722763061523,1,1,1000,1000,5.440323,0,0.0011341063072904
1778785735.33953,76524378,1,0.0012287432327866,0.0010155176278203,0.0010410574031993,-0.0017141754506155,-0.0002777142508421,-9.816611289978027,0,0,29.403722763061523,1,1,760,800,5.440323,0,0.0010410574031993
1778785735.379514,76564362,0,0.0010793826077133,0.001101131318137,0.0010606817668303,-0.0009771600598469,-0.0007709291530773,-9.81762981414795,0,0,29.40580177307129,1,1,1000,1000,5.480307,0,0.0010606817668303
1778785735.379514,76564362,1,0.001329842954874,0.0011794493766501,0.00120207935106,0.0013538338243961,0.0005455598002299,-9.81766414642334,0,0,29.40580177307129,1,1,760,800,5.480307,0,0.00120207935106
1778785735.419498,76604346,0,0.0011222690809518,0.0009903780883178,0.0010936446487903,0.0002175347472075,-0.0007654303335584,-9.817156791687012,0,0,29.407882690429688,1,1,1000,1000,5.520291,0,0.0010936446487903
1778785735.419498,76604346,1,0.0012352641206234,0.0009844965534284,0.001195169868879,0.0008168460335582,-0.0013043549843132,-9.816914558410645,0,0,29.407882690429688,1,1,760,800,5.520291,0,0.001195169868879
1778785735.459482,76644330,0,0.0010647239396348,0.0011509106261655,0.0009973056148737,-0.0020018436480313,-0.0013139876537024,-9.819127082824709,0,0,29.40995979309082,1,1,1000,1000,5.560275,0,0.0009973056148737
1778785735.459482,76644330,1,0.0011639549629762,0.0010284343734383,0.0010243258439004,0.0006940213497728,-0.001336190267466,-9.814746856689451,0,0,29.40995979309082,1,1,760,800,5.560275,0,0.0010243258439004
1778785735.499466,76684314,0,0.0011324912775307,0.0010817311704158,0.0011195584665983,-0.0013338616117835,-0.0002061886916635,-9.816727638244627,0,0,29.412038803100582,1,1,1000,1000,5.600259,0,0.0011195584665983
1778785735.499466,76684314,1,0.0011060687247663,0.0010832916013896,0.0010736177209764,-0.0006027651834301,-0.0014560018898919,-9.819517135620115,0,0,29.412038803100582,1,1,760,800,5.600259,0,0.0010736177209764
1778785735.53945,76724298,0,0.0010057446779683,0.0011244066990911,0.0011356739560142,-0.0014939620159566,0.00015786763106,-9.817102432250977,0,0,29.41411590576172,1,1,1000,1000,5.640243,0,0.0011356739560142
1778785735.53945,76724298,1,0.0012599640758708,0.0011679746676236,0.0010150911984965,-0.0039742356166243,-0.0001728151983115,-9.819466590881348,0,0,29.41411590576172,1,1,760,800,5.640243,0,0.0010150911984965
1778785735.579434,76764282,0,0.0011197009589523,0.0010520266368985,0.0010922639630734,-0.0004736757255159,-0.0020700474269688,-9.816311836242676,0,0,29.416194915771484,1,1,1000,1000,5.680227,0,0.0010922639630734
1778785735.579434,76764282,1,0.0008954174118116,0.0009099150192923,0.0010418611345812,-0.0015634768642485,0.0003331237821839,-9.818809509277344,0,0,29.416194915771484,1,1,760,800,5.680227,0,0.0010418611345812
1778785735.619418,76804266,0,0.0010968741262331,0.0011003648396581,0.0010128756985068,-0.0011482022237032,-0.0004346534842625,-9.817808151245115,0,0,29.41827392578125,1,1,1000,1000,5.720211,0,0.0010128756985068
1778785735.619418,76804266,1,0.0009632991277612,0.0010290774516761,0.000828185933642,0.000207916018553,-0.0003992980346083,-9.81843376159668,0,0,29.41827392578125,1,1,760,800,5.720211,0,0.000828185933642
1778785735.659402,76844250,0,0.0010860397014766,0.001036544679664,0.0010426846565678,-0.0011415794724598,-0.0019376121927052,-9.818504333496094,0,0,29.42034912109375,1,1,1000,1000,5.760195,0,0.0010426846565678
1778785735.659402,76844250,1,0.0010458385804668,0.0011290094116702,0.0008932003402151,-0.0017022964311763,0.0001625572331249,-9.81800937652588,0,0,29.42034912109375,1,1,760,800,5.760195,0,0.0008932003402151
1778785735.699386,76884234,0,0.0011046306462958,0.0011085481382906,0.0011270849499851,-0.0011415206827223,-0.00117391301319,-9.817538261413574,0,0,29.422426223754883,1,1,1000,1000,5.800179,0,0.0011270849499851
1778785735.699386,76884234,1,0.0007279280689544,0.001154780620709,0.0009616429451853,0.0005112164071761,0.0001250651257578,-9.818523406982422,0,0,29.422426223754883,1,1,760,800,5.800179,0,0.0009616429451853
1778785735.7393699,76924218,0,0.0010943067027255,0.0010706357425078,0.0010558102512732,-0.0010363981127738,-0.0011671169195324,-9.81761360168457,0,0,29.42445182800293,1,1,1000,1000,5.840163,0,0.0010558102512732
1778785735.7393699,76924218,1,0.0009364581783302,0.0009217633050866,0.0010713911615312,0.0002142335579264,-0.0006149380351416,-9.81987762451172,0,0,29.42445182800293,1,1,760,800,5.840163,0,0.0010713911615312
1778785735.7793539,76964202,0,0.0010914219310507,0.001127058872953,0.0010699073318392,-0.0011671405518427,-0.0006445089238695,-9.817378044128418,0,0,29.426528930664062,1,1,1000,1000,5.880147,0,0.0010699073318392
1778785735.7793539,76964202,1,0.0009609111002646,0.0011680972529575,0.0010782823665067,-0.0025302716530859,-0.0040966225787997,-9.817344665527344,0,0,29.426528930664062,1,1,760,800,5.880147,0,0.0010782823665067
1778785735.8193378,77004186,0,0.0010330936638638,0.0011150477221235,0.0011106363963335,-0.0012472753878682,-0.0004317774728406,-9.817091941833496,0,0,29.42860412597656,1,1,1000,1000,5.920131,0,0.0011106363963335
1778785735.8193378,77004186,1,0.0011152249062433,0.0010258903494104,0.0009798983810469,-0.0030846600420773,-0.0004712238442152,-9.819299697875977,0,0,29.42860412597656,1,1,760,800,5.920131,0,0.0009798983810469
1778785735.8593218,77044170,0,0.0010305541800335,0.0010784149635583,0.0011350659187883,-8.552901272196323e-05,-0.0005531385540962,-9.817373275756836,0,0,29.430679321289062,1,1,1000,1000,5.960115,0,0.0011350659187883
1778785735.8593218,77044170,1,0.0012757012154906,0.0011814332101494,0.0011333755683153,-0.0018357855733484,-0.0002091599162667,-9.816728591918944,0,0,29.430679321289062,1,1,760,800,5.960115,0,0.0011333755683153
1778785735.8993058,77084154,0,0.0011015583295375,0.0011320916237309,0.0010990523733198,-0.0007288320921361,-0.0024365880526602,-9.816961288452148,0,0,29.432756423950195,1,1,1000,1000,6.000099,0,0.0010990523733198
1778785735.8993058,77084154,1,0.0011195268016308,0.0010486096143722,0.0013566180132329,-0.0024782866239547,-0.0017270398093387,-9.817046165466309,0,0,29.432756423950195,1,1,760,800,6.000099,0,0.0013566180132329
1778785735.93929,77124138,0,0.0011236858554184,0.0010725243482738,0.0011382950469851,-0.0001603374257683,-0.0010401158360764,-9.818405151367188,0,0,29.434833526611328,1,1,1000,1000,6.040083,0,0.0011382950469851
1778785735.93929,77124138,1,0.0010952877346426,0.0010145378764718,0.0010076395701617,-0.0020575188100337,-0.0011340042110532,-9.816232681274414,0,0,29.434833526611328,1,1,760,800,6.040083,0,0.0010076395701617
1778785735.979274,77164122,0,0.0010881059570237,0.0011046789586544,0.0011296208249405,-0.0012485670158639,-0.0010902609210461,-9.818564414978027,0,0,29.436906814575195,1,1,1000,1000,6.080067,0,0.0011296208249405
1778785735.979274,77164122,1,0.0012093576369807,0.0010332083329558,0.0012729261070489,-0.0006091426475904,-0.0002261072804685,-9.818153381347656,0,0,29.436906814575195,1,1,760,800,6.080067,0,0.0012729261070489
1778785736.019258,77204106,0,0.0010718202684074,0.0010809575906023,0.0010966752888634,-0.0023613651283085,-0.0007165507995523,-9.817437171936035,0,0,29.43898200988769,1,1,1000,1000,6.120051,0,0.0010966752888634
1778785736.019258,77204106,1,0.0010843848576769,0.001127854688093,0.0011584492167457,-0.0007412059349007,0.0015528784133493,-9.817386627197266,0,0,29.43898200988769,1,1,760,800,6.120051,0,0.0011584492167457
1778785736.059242,77244090,0,0.0010995466727763,0.0010862350463867,0.0010432086419314,-0.0012812177883461,-0.0013505090028047,-9.817376136779783,0,0,29.44105529785156,1,1,1000,1000,6.160035,0,0.0010432086419314
1778785736.059242,77244090,1,0.0011387431295588,0.0010004168143495,0.0010829651728272,-0.0025907647795975,-0.0014113718643784,-9.818184852600098,0,0,29.44105529785156,1,1,760,800,6.160035,0,0.0010829651728272
1778785736.099226,77284074,0,0.001075662788935,0.0011106019373983,0.0011124283773824,-0.000743480224628,-0.001404023496434,-9.816837310791016,0,0,29.443130493164062,1,1,1000,1000,6.200019,0,0.0011124283773824
1778785736.099226,77284074,1,0.0011844823602586,0.0009893667884171,0.0013784437905997,-0.0006772265769541,-0.0009314846829511,-9.814961433410645,0,0,29.443130493164062,1,1,760,800,6.200019,0,0.0013784437905997
1778785736.13921,77324058,0,0.0011156150139868,0.0010658270912244,0.0010703552979975,-0.0017147306352853,-0.0006952990079298,-9.81731128692627,0,0,29.44525718688965,1,1,1000,1000,6.240003,0,0.0010703552979975
1778785736.13921,77324058,1,0.0012494002003222,0.0011979087721556,0.0013173478655517,-0.0007238532998599,-0.0020822086371481,-9.816234588623049,0,0,29.44520568847656,1,1,760,800,6.240003,0,0.0013173478655517
1778785736.179194,77364042,0,0.0010846144286915,0.0011017514625564,0.0011060194810852,-0.0003048276994377,-0.0014245646307244,-9.81765079498291,0,0,29.44733047485352,1,1,1000,1000,6.279987,0,0.0011060194810852
1778785736.179194,77364042,1,0.0011088754981756,0.001008516526781,0.001272412482649,-0.0024949363432824,-0.002131852786988,-9.816753387451172,0,0,29.44727897644043,1,1,760,800,6.279987,0,0.001272412482649
1778785736.219178,77404026,0,0.0011164960451424,0.0011457714717835,0.0010467902757227,-0.0013350477674975,-0.0021003624424338,-9.818693161010742,0,0,29.449405670166016,1,1,1000,1000,6.319971,0,0.0010467902757227
1778785736.219178,77404026,1,0.001039731549099,0.0012727215653285,0.0009514599805697,-0.0015519543085247,0.0007204295252449,-9.817813873291016,0,0,29.449352264404297,1,1,760,800,6.319971,0,0.0009514599805697
1778785736.2599947,77444843,0,0.0011174085084348,0.0010741116711869,0.0010985166300088,-0.0011697288136929,-0.0004008099786005,-9.817822456359863,0,0,29.45147705078125,1,1,1000,1000,6.360788,0,0.0010985166300088
1778785736.2599947,77444843,1,0.0009365414152853,0.0010464998194947,0.0012039355933666,-0.0017876027850434,-0.0014344721566885,-9.81654453277588,0,0,29.45147705078125,1,1,760,800,6.360788,0,0.0012039355933666
1778785736.2999787,77484827,0,0.0011210598750039,0.0011484556598588,0.0010378789156675,-0.0017296778969466,-0.0007953272433951,-9.817760467529297,0,0,29.45355033874512,1,1,1000,1000,6.400772,0,0.0010378789156675
1778785736.2999787,77484827,1,0.000985600054264,0.0012109079398214,0.0009429982746951,-0.0001163710694527,-0.000170931496541,-9.817829132080078,0,0,29.45355033874512,1,1,760,800,6.400772,0,0.0009429982746951
1778785736.3399627,77524811,0,0.0011180925648659,0.0011129328049719,0.0010840567993,-0.0013719311682507,-0.0014633052051067,-9.817553520202637,0,0,29.455623626708984,1,1,1000,1000,6.440756,0,0.0010840567993
1778785736.3399627,77524811,1,0.0012372562196105,0.0011957675451412,0.0011414417531341,0.0002916256198659,-0.0008928402676247,-9.818552017211914,0,0,29.455623626708984,1,1,760,800,6.440756,0,0.0011414417531341
1778785736.3799467,77564795,0,0.0011370497522875,0.0011108812177553,0.0010852249106392,-0.0001180437539005,-0.0007243416039273,-9.817238807678224,0,0,29.45769500732422,1,1,1000,1000,6.48074,0,0.0010852249106392
1778785736.3799467,77564795,1,0.0012195009039714,0.001028427737765,0.0012266398407518,-0.0010827134829014,-0.0020466763526201,-9.81645393371582,0,0,29.45769500732422,1,1,760,800,6.48074,0,0.0012266398407518
1778785736.4199307,77604779,0,0.0011181965237483,0.0010668456088751,0.0011487326119095,-5.83517030463554e-05,-0.0016581600066274,-9.817898750305176,0,0,29.459766387939453,1,1,1000,1000,6.520724,0,0.0011487326119095
1778785736.4199307,77604779,1,0.0011204027105122,0.0012451196089386,0.0009777542436495,-0.0026365141384303,-0.0008367045084014,-9.817096710205078,0,0,29.459766387939453,1,1,760,800,6.520724,0,0.0009777542436495
1778785736.4599147,77644763,0,0.0010910124983638,0.0010268861660733,0.0010732660302892,-0.0002692733251024,-0.0007700184942223,-9.81692886352539,0,0,29.461841583251957,1,1,1000,1000,6.560708,0,0.0010732660302892
1778785736.4599147,77644763,1,0.0009817831451073,0.0011034130584448,0.0009871569927781,0.0009788968600332,-0.0005299152107909,-9.818404197692873,0,0,29.461841583251957,1,1,760,800,6.560708,0,0.0009871569927781
1778785736.499899,77684747,0,0.001092383521609,0.0010617431253194,0.0011608907952904,-0.0009805695153772,-0.0008427985012531,-9.817169189453123,0,0,29.463912963867188,1,1,1000,1000,6.600692,0,0.0011608907952904
1778785736.499899,77684747,1,0.0011063768761232,0.0011245452333241,0.0011125924065709,-0.001954304985702,-0.0005130195058882,-9.818511962890623,0,0,29.463912963867188,1,1,760,800,6.600692,0,0.0011125924065709
1778785736.539883,77724731,0,0.0010646648006513,0.0010971322190016,0.0011023826664313,-0.0009673442691564,-0.0015902981394901,-9.818293571472168,0,0,29.46598243713379,1,1,1000,1000,6.640676,0,0.0011023826664313
1778785736.539883,77724731,1,0.0009687172132544,0.0011415679473429,0.0009344615973532,-0.0003933765110559,-0.0020688918884843,-9.816415786743164,0,0,29.46598243713379,1,1,760,800,6.640676,0,0.0009344615973532
1778785736.579867,77764715,0,0.0011209424119442,0.0010378160513937,0.0010829179082065,-0.0004032272554468,-0.0003498095320537,-9.816594123840332,0,0,29.468055725097656,1,1,1000,1000,6.68066,0,0.0010829179082065
1778785736.579867,77764715,1,0.001159411505796,0.001307887607254,0.0010521496878936,0.0007379997405223,-0.0013647469459101,-9.818719863891602,0,0,29.468055725097656,1,1,760,800,6.68066,0,0.0010521496878936
1778785736.6198509,77804699,0,0.0010957890190184,0.0011569979833438,0.0011007311986759,-0.0004098295466974,-0.0001975068589672,-9.941621780395508,0,0,29.470125198364254,1,1,1000,1000,6.720644,0,0.0011007311986759
1778785736.6198509,77804699,1,0.0010189845925197,0.0012494615511968,0.0010185599094256,-0.002110579283908,-0.0036706891842186,-9.936870574951172,0,0,29.470125198364254,1,1,760,800,6.720644,0,0.0010185599094256
1778785736.6598349,77844683,0,0.0010495950700715,0.0010422547347843,0.0011032742913812,-0.0007720617577433,-0.0019386593485251,-10.467626571655272,0,0,29.47219467163086,1,1,1000,1000,6.760628,0,0.0011032742913812
1778785736.6598349,77844683,1,0.0011950245825573,0.0012105269124731,0.0009728835429996,-0.0012848848709836,-0.0002778730122372,-10.46337604522705,0,0,29.47219467163086,1,1,760,800,6.760628,0,0.0009728835429996
1778785736.6998188,77884667,0,0.0011420553782954,0.0011075105285272,0.0010853726416826,-0.00015036505647,-0.001455578720197,-10.415522575378418,0,0,29.474266052246094,1,1,1000,1000,6.800612,0,0.0010853726416826
1778785736.6998188,77884667,1,0.0010409174719825,0.0011054731439799,0.000991528853774,-0.0009548193775117,-0.0018442905275151,-10.418392181396484,0,0,29.474266052246094,1,1,760,800,6.800612,0,0.000991528853774
1778785736.7398028,77924651,0,0.0011095363879576,0.0011182008311152,0.0010698738042265,-0.000441792391939,0.0002049434697255,-10.362157821655272,0,0,29.47633552551269,1,1,1000,1000,6.840596,0,0.0010698738042265
1778785736.7398028,77924651,1,0.0010866785887628,0.0011627479689195,0.0011063253041356,-1.7960279365070164e-05,0.0019557997584342,-10.361031532287598,0,0,29.47633552551269,1,1,760,800,6.840596,0,0.0011063253041356
1778785736.7797868,77964635,0,0.0011446614516898,0.0011038950178772,0.0010901334462687,-0.000231111087487,-0.0006488816579803,-10.404712677001951,0,0,29.478404998779297,1,1,1000,1000,6.88058,0,0.0010901334462687
1778785736.7797868,77964635,1,0.0010806848295032,0.0011877508368343,0.0011258844751864,-0.0028389496728777,-0.0022789272479712,-10.400532722473145,0,0,29.478404998779297,1,1,760,800,6.88058,0,0.0011258844751864
1778785736.8197708,78004619,0,0.0011006493587046,0.0011287740198895,0.0010796387214213,-0.001025298028253,-0.0012189989211037,-10.396678924560549,0,0,29.48047637939453,1,1,1000,1000,6.920564,0,0.0010796387214213
1778785736.8197708,78004619,1,0.0010344352340325,0.0012116952566429,0.0012312631588429,0.0004199302347842,0.0015492065576836,-10.394733428955078,0,0,29.48047637939453,1,1,760,800,6.920564,0,0.0012312631588429
1778785736.859755,78044603,0,0.0011066864244639,0.0011051814071834,0.0010910271666944,-0.0003163643123116,-0.0012712696334347,-10.367491722106934,0,0,29.4825439453125,1,1,1000,1000,6.960548,0,0.0010910271666944
1778785736.859755,78044603,1,0.0010660892585292,0.0012319108936935,0.001138836145401,-0.0012671832228079,-0.0024554491974413,-10.364246368408203,0,0,29.4825439453125,1,1,760,800,6.960548,0,0.001138836145401
1778785736.899739,78084587,0,0.0011162345763295,0.0010823708726093,0.0010997551726177,-0.0016049903351813,7.299662684090436e-05,-10.348392486572266,0,0,29.4846134185791,1,1,1000,1000,7.000532,0,0.0010997551726177
1778785736.899739,78084587,1,0.0011943882564082,0.0012583814095705,0.0011736205779016,0.0009805262088775,-0.0012454377720132,-10.34358024597168,0,0,29.4846134185791,1,1,760,800,7.000532,0,0.0011736205779016
1778785736.939723,78124571,0,0.0010934812016785,0.0010984294349327,0.0010820719180628,-0.0005643666954711,-0.0006219697534106,-10.342690467834473,0,0,29.48668098449707,1,1,1000,1000,7.040516,0,0.0010820719180628
1778785736.939723,78124571,1,0.0011722651543095,0.0011794918682426,0.001060077920556,-0.000168825732544,-0.0022238395176827,-10.340956687927246,0,0,29.48668098449707,1,1,760,800,7.040516,0,0.001060077920556
1778785736.979707,78164555,0,0.0010403378400951,0.0010895032901316,0.0011147659970447,-0.0004288660129532,-0.0012499531731009,-10.344650268554688,0,0,29.488750457763672,1,1,1000,1000,7.0805,0,0.0011147659970447
1778785736.979707,78164555,1,0.0010503383819013,0.001224105944857,0.0011159975547343,-0.0006305680726654,-0.0007519251666963,-10.341545104980469,0,0,29.488750457763672,1,1,760,800,7.0805,0,0.0011159975547343
1778785737.0196908,78204539,0,0.0010786146158352,0.0010880990885198,0.0010949879651889,-0.0015447661280632,-0.0010693387594074,-10.355165481567385,0,0,29.49081802368164,1,1,1000,1000,7.120484,0,0.0010949879651889
1778785737.0196908,78204539,1,0.0009816770907491,0.0012868564808741,0.0011838419595733,-0.0007081006187945,-0.0008041866822168,-10.34910774230957,0,0,29.49081802368164,1,1,760,800,7.120484,0,0.0011838419595733
1778785737.0596747,78244523,0,0.0010924905072897,0.0011378002818673,0.0011635760311037,-0.0005806340486742,-0.0009038854041136,-10.367209434509276,0,0,29.49288558959961,1,1,1000,1000,7.160468,0,0.0011635760311037
1778785737.0596747,78244523,1,0.0010615732753649,0.0010839727474376,0.0010957395425066,-0.0007387467776425,-0.0019355134572833,-10.364579200744627,0,0,29.49288558959961,1,1,760,800,7.160468,0,0.0010957395425066
1778785737.0996587,78284507,0,0.001128050033003,0.001085932017304,0.0011154110543429,-0.0009876302210614,-0.00166168785654,-10.382417678833008,0,0,29.494953155517575,1,1,1000,1000,7.200452,0,0.0011154110543429
1778785737.0996587,78284507,1,0.0012498961295932,0.001141094835475,0.0010132570751011,0.0012587975943461,-0.0015221342910081,-10.3814697265625,0,0,29.494953155517575,1,1,760,800,7.200452,0,0.0010132570751011
1778785737.1396427,78324491,0,0.0011318263132125,0.0011254160199314,0.0010924317175522,-0.0005789101705886,-0.0028460714966058,-10.398317337036133,0,0,29.497020721435547,1,1,1000,1000,7.240436,0,0.0010924317175522
1778785737.1396427,78324491,1,0.0008754243026487,0.0010420152684673,0.0011925889411941,-0.001308713806793,0.001948426477611,-10.394891738891602,0,0,29.497020721435547,1,1,760,800,7.240436,0,0.0011925889411941
1778785737.1796267,78364475,0,0.0011394616449251,0.0011388666462153,0.0010996486525982,-0.000959096068982,-0.0007570449379272,-10.415887832641602,0,0,29.49908828735352,1,1,1000,1000,7.28042,0,0.0010996486525982
1778785737.1796267,78364475,1,0.001000253483653,0.001135709695518,0.001169943716377,0.0008531932835467,-0.0035275665577501,-10.413358688354492,0,0,29.49908828735352,1,1,760,800,7.28042,0,0.001169943716377
1778785737.2196107,78404459,0,0.0011191812809556,0.0011077568633481,0.0011402282398194,-0.0010385322384536,-0.0013918885961174,-10.429275512695312,0,0,29.50115203857422,1,1,1000,1000,7.320404,0,0.0011402282398194
1778785737.2196107,78404459,1,0.0012562876800075,0.0012005437165498,0.0011560450075194,-0.0016376283019781,-0.0017365310341119,-10.4276123046875,0,0,29.50115203857422,1,1,760,800,7.320404,0,0.0011560450075194
1778785737.259595,78444443,0,0.0010941915679723,0.0011085914447903,0.001075625186786,-0.0015922915190458,-0.0004110566223971,-10.447498321533203,0,0,29.503219604492188,1,1,1000,1000,7.360388,0,0.001075625186786
1778785737.259595,78444443,1,0.0010325504699721,0.0010238164104521,0.0011885249987244,0.0007344806799665,0.0014723201747983,-10.443296432495115,0,0,29.503219604492188,1,1,760,800,7.360388,0,0.0011885249987244
1778785737.299579,78484427,0,-0.0263701844960451,-0.0256534442305564,0.0013788559008389,0.0002476526424288,-0.0012453580275177,-13.42138385772705,0,0,29.50528717041016,1,1,1000,1000,7.400372,0,0.0013788559008389
1778785737.299579,78484427,1,-0.0263785906136035,-0.0254665166139602,0.0012682983651757,0.0002471946354489,0.0006685258704237,-13.428503036499023,0,0,29.50528717041016,1,1,760,800,7.400372,0,0.0012682983651757
1778785737.339563,78524411,0,-0.0310261510312557,-0.0299081113189458,0.0017868389841169,-0.0050282110460102,0.002550920471549,-15.142927169799805,0,0,29.50735092163086,1,1,1000,1000,7.440356,0,0.0017868389841169
1778785737.339563,78524411,1,-0.0308309756219387,-0.0297393053770065,0.0019079773919656,-0.0034353611990809,0.0039031165651977,-15.161746978759766,0,0,29.50735092163086,1,1,760,800,7.440356,0,0.0019079773919656
1778785737.3795469,78564395,0,-0.0298163592815399,-0.0284883510321378,0.0019389435183256,-0.0118945054709911,0.0098810559138655,-14.683686256408691,0,0,29.509418487548828,1,1,1000,1000,7.48034,0,0.0019389435183256
1778785737.3795469,78564395,1,-0.0298100300133228,-0.0284186862409114,0.0021068984642624,-0.0120814824476838,0.0135161243379116,-14.69993495941162,0,0,29.509418487548828,1,1,760,800,7.48034,0,0.0021068984642624
1778785737.4195309,78604379,0,-0.0256638713181018,-0.0248602628707885,0.0021153495181351,-0.0198693424463272,0.0173614267259836,-13.601828575134276,0,0,29.51148223876953,1,1,1000,1000,7.520324,0,0.0021153495181351
1778785737.4195309,78604379,1,-0.025820892304182,-0.0248954929411411,0.002096741227433,-0.020326193422079,0.0155604928731918,-13.61279296875,0,0,29.51148223876953,1,1,760,800,7.520324,0,0.002096741227433
1778785737.4595149,78644363,0,-0.0211360808461904,-0.0209970697760581,0.002196375047788,-0.0224820245057344,0.0214036703109741,-12.370887756347656,0,0,29.513547897338867,1,1,1000,1000,7.560308,0,0.002196375047788
1778785737.4595149,78644363,1,-0.0211928263306617,-0.0210962109267711,0.0022258590906858,-0.0215860158205032,0.0195760764181613,-12.37932014465332,0,0,29.513547897338867,1,1,760,800,7.560308,0,0.0022258590906858
1778785737.4994988,78684347,0,-0.0162018723785877,-0.0151018751785159,0.0021332011092454,-0.0218618549406528,0.02101431787014,-11.223901748657228,0,0,29.51561164855957,1,1,1000,1000,7.600292,0,0.0021332011092454
1778785737.4994988,78684347,1,-0.0161838792264461,-0.0152484830468893,0.0024221257772296,-0.0240205451846122,0.0195598825812339,-11.227325439453123,0,0,29.51561164855957,1,1,760,800,7.600292,0,0.0024221257772296
1778785737.5394828,78724331,0,-0.0102564431726932,-0.0099252741783857,0.0020600333809852,-0.0198455788195133,0.0179030541330575,-10.291611671447754,0,0,29.517677307128903,1,1,1000,1000,7.640276,0,0.0020600333809852
1778785737.5394828,78724331,1,-0.0106430631130933,-0.0103111956268548,0.0021148377563804,-0.0184598416090011,0.0178161915391683,-10.294479370117188,0,0,29.517677307128903,1,1,760,800,7.640276,0,0.0021148377563804
1778785737.5794668,78764315,0,-0.0054353903979063,-0.0050450726412236,0.0019785731565207,-0.0129693895578384,0.0105125317350029,-9.635144233703612,0,0,29.51974105834961,1,1,1000,1000,7.68026,0,0.0019785731565207
1778785737.5794668,78764315,1,-0.0053541166707873,-0.0050358376465737,0.0019959835335612,-0.0132418442517519,0.0128435790538787,-9.635931968688965,0,0,29.51974105834961,1,1,760,800,7.68026,0,0.0019959835335612
1778785737.619451,78804299,0,-0.0014633382670581,-0.0004236113745719,0.0019130703294649,-0.0071918698959052,0.0050306790508329,-9.267581939697266,0,0,29.521804809570312,1,1,1000,1000,7.720244,0,0.0019130703294649
1778785737.619451,78804299,1,-0.0016226198058575,-0.0004236421664245,0.0020349649712443,-0.0059553980827331,0.0058827446773648,-9.266519546508787,0,0,29.521804809570312,1,1,760,800,7.720244,0,0.0020349649712443
1778785737.659435,78844283,0,0.0029981723055243,0.0037846707273274,0.0019262203713878,-0.0025434545241296,0.0008028690936043,-9.14600944519043,0,0,29.523868560791016,1,1,1000,1000,7.760228,0,0.0019262203713878
1778785737.659435,78844283,1,0.0028874680865556,0.0037866018246859,0.0019153900211676,-0.006293739657849,0.0008449974702671,-9.14398193359375,0,0,29.523868560791016,1,1,760,800,7.760228,0,0.0019153900211676
1778785737.699419,78884267,0,0.0076245227828621,0.0074257822707295,0.0017993798246607,-0.0003478706057649,-0.0011526043526828,-9.209485054016112,0,0,29.52593231201172,1,1,1000,1000,7.800212,0,0.0017993798246607
1778785737.699419,78884267,1,0.0074462499469518,0.0073004066944122,0.0019429593812674,0.0003662987146526,-0.0025626134593039,-9.204652786254885,0,0,29.52593231201172,1,1,760,800,7.800212,0,0.0019429593812674
1778785737.739403,78924251,0,0.0101355575025081,0.011154961772263,0.001749419956468,0.0005059680552221,-0.0018543730257079,-9.404285430908203,0,0,29.52799415588379,1,1,1000,1000,7.840196,0,0.001749419956468
1778785737.739403,78924251,1,0.0099488487467169,0.0111918775364756,0.0019738394767045,-0.001762933563441,-0.0042137107811868,-9.401144981384276,0,0,29.52799415588379,1,1,760,800,7.840196,0,0.0019738394767045
1778785737.779387,78964235,0,0.0133274039253592,0.0129659920930862,0.0017057303339242,-3.0220524422475137e-05,-0.0016609708545729,-9.658666610717772,0,0,29.53005790710449,1,1,1000,1000,7.88018,0,0.0017057303339242
1778785737.779387,78964235,1,0.0131270308047533,0.0129745127633214,0.0016196491196751,-0.0003099054447375,-0.003152692457661,-9.655920028686523,0,0,29.53005790710449,1,1,760,800,7.88018,0,0.0016196491196751
1778785737.8193707,79004219,0,0.0145132336765527,0.0142420036718249,0.0016829185187816,-0.0024113939143717,-0.0006572106503881,-9.935413360595703,0,0,29.53207015991211,1,1,1000,1000,7.920164,0,0.0016829185187816
1778785737.8193707,79004219,1,0.0145371994003653,0.0140087697654962,0.0015041357837617,-0.001137129496783,-0.0017197951674461,-9.936875343322754,0,0,29.53207015991211,1,1,760,800,7.920164,0,0.0015041357837617
1778785737.8593547,79044203,0,0.0161967165768146,0.0159469526261091,0.0016620638780295,-0.0028804580215364,0.0011989076156169,-10.190682411193848,0,0,29.534130096435547,1,1,1000,1000,7.960148,0,0.0016620638780295
1778785737.8593547,79044203,1,0.0160280205309391,0.0159455947577953,0.0018607684178277,-0.005330151412636,0.0021330686286091,-10.18962287902832,0,0,29.534130096435547,1,1,760,800,7.960148,0,0.0018607684178277
1778785737.8993387,79084187,0,0.0175741463899612,0.0170121900737285,0.0015826046001166,-0.0060990038327872,0.0040341205894947,-10.40618896484375,0,0,29.53619384765625,1,1,1000,1000,8.000132,0,0.0015826046001166
1778785737.8993387,79084187,1,0.0177044924348592,0.0169504210352897,0.0018194480799138,-0.0045261792838573,0.0015990970423445,-10.405316352844238,0,0,29.53619384765625,1,1,760,800,8.000132,0,0.0018194480799138
1778785737.9393227,79124171,0,0.0174487829208374,0.0173937603831291,0.0016372856916859,-0.0059970496222376,0.0042199343442916,-10.57939910888672,0,0,29.538253784179688,1,1,1000,1000,8.040116,0,0.0016372856916859
1778785737.9393227,79124171,1,0.017419833689928,0.0172539167106151,0.0016852966509759,-0.007664231583476,0.0078946454450488,-10.579553604125977,0,0,29.538253784179688,1,1,760,800,8.040116,0,0.0016852966509759
1778785737.9793067,79164155,0,0.0195705331861972,0.0181767717003822,0.0015923816245049,-0.0067882183939218,0.0050820265896618,-10.688526153564451,0,0,29.54031562805176,1,1,1000,1000,8.0801,0,0.0015923816245049
1778785737.9793067,79164155,1,0.0195553489029407,0.0182806737720966,0.0015999218448996,-0.0091983908787369,0.0053198058158159,-10.688006401062012,0,0,29.54031562805176,1,1,760,800,8.0801,0,0.0015999218448996
1778785738.0192907,79204139,0,0.0161380507051944,0.0169934015721082,0.0016362983733415,-0.0082534607499837,0.0066634337417781,-10.77964210510254,0,0,29.542377471923828,1,1,1000,1000,8.120084,0,0.0016362983733415
1778785738.0192907,79204139,1,0.0162883140146732,0.016992051154375,0.0017565406160429,-0.0080989832058548,0.0080305896699428,-10.779207229614258,0,0,29.542377471923828,1,1,760,800,8.120084,0,0.0017565406160429
1778785738.059275,79244123,0,0.0166557617485523,0.0136240012943744,0.0015898447018116,-0.009039158001542,0.0085514336824417,-10.811887741088867,0,0,29.544437408447266,1,1,1000,1000,8.160068,0,0.0015898447018116
1778785738.059275,79244123,1,0.0164591912180185,0.0135329756885766,0.0016459969338029,-0.0090448167175054,0.0081200934946537,-10.81187629699707,0,0,29.544437408447266,1,1,760,800,8.160068,0,0.0016459969338029
1778785738.099259,79284107,0,0.0141587574034929,0.0143653210252523,0.0016125200781971,-0.0098626278340816,0.0071878479793667,-10.82662868499756,0,0,29.546499252319336,1,1,1000,1000,8.200052,0,0.0016125200781971
1778785738.099259,79284107,1,0.0141776343807578,0.0142110791057348,0.0017137634567916,-0.008017236366868,0.0078340815380215,-10.826480865478516,0,0,29.546499252319336,1,1,760,800,8.200052,0,0.0017137634567916
1778785738.139243,79324091,0,0.0124817425385117,0.0139570478349924,0.0016117109917104,-0.0103733455762267,0.0089946892112493,-10.825839042663574,0,0,29.548559188842773,1,1,1000,1000,8.240036,0,0.0016117109917104
1778785738.139243,79324091,1,0.0124685484915971,0.0141456630080938,0.0016420366009697,-0.0092127602547407,0.0057684173807501,-10.824533462524414,0,0,29.548559188842773,1,1,760,800,8.240036,0,0.0016420366009697
1778785738.1792269,79364075,0,0.0118684954941272,0.012055461294949,0.0015212246216833,-0.0096008256077766,0.0094708884134888,-10.82204532623291,0,0,29.55061912536621,1,1,1000,1000,8.28002,0,0.0015212246216833
1778785738.1792269,79364075,1,0.0116423591971397,0.0122492667287588,0.0016047488898038,-0.0104107372462749,0.0069488827139139,-10.82283878326416,0,0,29.55061912536621,1,1,760,800,8.28002,0,0.0016047488898038
1778785738.2192109,79404059,0,0.0107957599684596,0.0092646284028887,0.0014488385058939,-0.008757279254496,0.0072298189625144,-10.81596565246582,0,0,29.55273056030273,1,1,1000,1000,8.320004,0,0.0014488385058939
1778785738.2192109,79404059,1,0.0106335747987031,0.0093305986374616,0.0014207018539309,-0.0077811619266867,0.0063685616478323,-10.815711975097656,0,0,29.55267906188965,1,1,760,800,8.320004,0,0.0014207018539309
1778785738.2591949,79444043,0,0.009990063495934,0.008143788203597,0.0013839819002896,-0.0087935682386159,0.0086941374465823,-10.80417823791504,0,0,29.55479049682617,1,1,1000,1000,8.359988,0,0.0013839819002896
1778785738.2591949,79444043,1,0.0096821496263146,0.0081858364865183,0.0014879840891808,-0.0093068787828087,0.0077546532265841,-10.803058624267578,0,0,29.55473899841309,1,1,760,800,8.359988,0,0.0014879840891808
1778785738.2991788,79484027,0,0.0097342021763324,0.0076674767769873,0.0014117932878434,-0.0097138034179806,0.0072990553453564,-10.802817344665527,0,0,29.556848526000977,1,1,1000,1000,8.399972,0,0.0014117932878434
1778785738.2991788,79484027,1,0.0097496332600712,0.0076533295214176,0.0017258038278669,-0.0096266465261578,0.0071625215932726,-10.804405212402344,0,0,29.55679702758789,1,1,760,800,8.399972,0,0.0017258038278669
1778785738.3399959,79524844,0,0.0064348811283707,0.0100918039679527,0.0013982739765197,-0.0091201281175017,0.0074752010405063,-10.809167861938477,0,0,29.55890655517578,1,1,1000,1000,8.440789,0,0.0013982739765197
1778785738.3399959,79524844,1,0.0063989553600549,0.0101460013538599,0.0014027296565473,-0.0083792395889759,0.0082087935879826,-10.808526992797852,0,0,29.55890655517578,1,1,760,800,8.440789,0,0.0014027296565473
1778785738.3799798,79564828,0,0.0103329000994563,0.0043130018748342,0.001462530111894,-0.0085508041083812,0.0064812642522156,-10.813858032226562,0,0,29.56096649169922,1,1,1000,1000,8.480773,0,0.001462530111894
1778785738.3799798,79564828,1,0.0102750221267342,0.0043621738441288,0.0013496442697942,-0.0068060145713388,0.0044849612750113,-10.814687728881836,0,0,29.56096649169922,1,1,760,800,8.480773,0,0.0013496442697942
1778785738.4199638,79604812,0,0.0047136256471276,0.0080550536513328,0.0014550167834386,-0.0085699381306767,0.006671754643321,-10.824453353881836,0,0,29.563026428222656,1,1,1000,1000,8.520757,0,0.0014550167834386
1778785738.4199638,79604812,1,0.0047523118555545,0.007833506911993,0.0016838308656588,-0.0113513842225074,0.0070449467748403,-10.825529098510742,0,0,29.563026428222656,1,1,760,800,8.520757,0,0.0016838308656588
1778785738.4599478,79644796,0,0.0053566093556582,0.0029964053537696,0.0014527091989293,-0.0091699343174695,0.0068979365751147,-10.829667091369627,0,0,29.56508445739746,1,1,1000,1000,8.560741,0,0.0014527091989293
1778785738.4599478,79644796,1,0.0053336136043071,0.0031392429955303,0.001491873874329,-0.0090905763208866,0.0065603954717516,-10.828302383422852,0,0,29.56508445739746,1,1,760,800,8.560741,0,0.001491873874329
1778785738.4999318,79684780,0,0.0057724965736269,0.0064031546935439,0.0013772011734545,-0.0094810603186488,0.0062539535574615,-10.844345092773438,0,0,29.567142486572266,1,1,1000,1000,8.600725,0,0.0013772011734545
1778785738.4999318,79684780,1,0.0057268692180514,0.0064038014970719,0.0013399954186752,-0.0094598904252052,0.0096986563876271,-10.84231662750244,0,0,29.567142486572266,1,1,760,800,8.600725,0,0.0013399954186752
1778785738.539916,79724764,0,0.0034469931852072,0.0019283706787973,0.0014391813892871,-0.0079337749630212,0.0057887025177478,-10.857975959777832,0,0,29.56919860839844,1,1,1000,1000,8.640709,0,0.0014391813892871
1778785738.539916,79724764,1,0.0033462306018918,0.0016526998952031,0.001274254405871,-0.0075219427235424,0.0044012917205691,-10.859408378601074,0,0,29.56919860839844,1,1,760,800,8.640709,0,0.001274254405871
1778785738.5799,79764748,0,0.0042337654158473,0.0049841674044728,0.0014363253721967,-0.0083068031817674,0.0071783033199608,-10.878165245056152,0,0,29.57125663757324,1,1,1000,1000,8.680693,0,0.0014363253721967
1778785738.5799,79764748,1,0.0043651992455124,0.0050793010741472,0.0012333445483818,-0.00696841487661,0.0050859125331044,-10.880767822265623,0,0,29.57125663757324,1,1,760,800,8.680693,0,0.0012333445483818
1778785738.619884,79804732,0,0.0023804320953786,0.0023871734738349,0.0015155465807765,-0.0092503130435943,0.0061001675203442,-10.883883476257324,0,0,29.57331275939941,1,1,1000,1000,8.720677,0,0.0015155465807765
1778785738.619884,79804732,1,0.0024528121575713,0.0022706408053636,0.0014159334823489,-0.0078992508351802,0.0072158020921051,-10.884577751159668,0,0,29.57331275939941,1,1,760,800,8.720677,0,0.0014159334823489
1778785738.659868,79844716,0,0.0018658627523109,0.0005175812984816,0.0015125577338039,-0.0068862764164805,0.0052856113761663,-10.88114070892334,0,0,29.575368881225582,1,1,1000,1000,8.760661,0,0.0015125577338039
1778785738.659868,79844716,1,0.0018704533576965,0.0004428241809364,0.001592214917764,-0.0093598626554012,0.006801008246839,-10.882591247558594,0,0,29.575368881225582,1,1,760,800,8.760661,0,0.001592214917764
1778785738.699852,79884700,0,0.0017925760475918,0.0036284166853874,0.0015148625243455,-0.0080201365053653,0.0060123736038804,-10.902196884155272,0,0,29.57742691040039,1,1,1000,1000,8.800645,0,0.0015148625243455
1778785738.699852,79884700,1,0.0018143805209547,0.0037456776481121,0.0016002889024093,-0.0069543598219752,0.0075037158094346,-10.902446746826172,0,0,29.57742691040039,1,1,760,800,8.800645,0,0.0016002889024093
1778785738.739836,79924684,0,0.0018237303011119,0.0033227568492293,0.0014969571493566,-0.0074346493929624,0.0047120144590735,-10.884754180908203,0,0,29.57948303222656,1,1,1000,1000,8.840629,0,0.0014969571493566
1778785738.739836,79924684,1,0.0018931052181869,0.0031607169657945,0.0015264558605849,-0.0075693861581385,0.005522777326405,-10.886018753051758,0,0,29.57948303222656,1,1,760,800,8.840629,0,0.0015264558605849
1778785738.77982,79964668,0,0.0035522740799933,6.149637192720547e-05,0.0016141920350492,-0.0069038057699799,0.0047366926446557,-10.903661727905272,0,0,29.58153915405273,1,1,1000,1000,8.880613,0,0.0016141920350492
1778785738.77982,79964668,1,0.003471003845334,7.681860006414354e-05,0.0016137581551447,-0.006256507243961,0.0037089590914547,-10.905884742736816,0,0,29.58153915405273,1,1,760,800,8.880613,0,0.0016137581551447
1778785738.819804,80004652,0,0.0014643070753663,0.0002916999510489,0.0016236726660281,-0.0073291417211294,0.0048483004793524,-10.888545036315918,0,0,29.583593368530277,1,1,1000,1000,8.920597,0,0.0016236726660281
1778785738.819804,80004652,1,0.0015022358857095,0.0001679376873653,0.0017604505410417,-0.0060231210663914,0.0009750935714691,-10.887691497802734,0,0,29.583593368530277,1,1,760,800,8.920597,0,0.0017604505410417
1778785738.859788,80044636,0,0.0023730520624667,0.0014636414125561,0.0016396970022469,-0.006200477015227,0.003625460434705,-10.89870262145996,0,0,29.585649490356445,1,1,1000,1000,8.960581,0,0.0016396970022469
1778785738.859788,80044636,1,0.0024724786635488,0.0013990041334182,0.0015481691807508,-0.0064499033614993,0.0027656559832394,-10.898329734802246,0,0,29.585649490356445,1,1,760,800,8.960581,0,0.0015481691807508
1778785738.899772,80084620,0,0.0018368206219747,0.0013559707440435,0.0016677194507792,-0.0063287313096225,0.0042771697044372,-10.880313873291016,0,0,29.587705612182617,1,1,1000,1000,9.000565,0,0.0016677194507792
1778785738.899772,80084620,1,0.0018107758369296,0.0013202797854319,0.0015644879313185,-0.0047675366513431,0.0054990025237202,-10.878923416137695,0,0,29.587705612182617,1,1,760,800,9.000565,0,0.0015644879313185
1778785738.939756,80124604,0,0.0001986830757232,0.0002862154215108,0.0016919260378926,-0.0056069083511829,0.0026871545705944,-10.892696380615234,0,0,29.58975982666016,1,1,1000,1000,9.040549,0,0.0016919260378926
1778785738.939756,80124604,1,0.0001004984078463,8.823524694889784e-05,0.0014602207811549,-0.0066174385137856,0.004731252323836,-10.893250465393066,0,0,29.58975982666016,1,1,760,800,9.040549,0,0.0014602207811549
1778785738.97974,80164588,0,0.0003379390691407,0.0004464468802325,0.0016088957199826,-0.0043241502717137,0.0038777342997491,-10.870479583740234,0,0,29.591812133789062,1,1,1000,1000,9.080533,0,0.0016088957199826
1778785738.97974,80164588,1,0.0003255897318013,0.0003283402184024,0.0018350128084421,-0.0062294192612171,0.001780179911293,-10.86667251586914,0,0,29.591812133789062,1,1,760,800,9.080533,0,0.0018350128084421
1778785739.019724,80204572,0,-0.0012023926246911,0.0004943680251017,0.0016276619862765,-0.006363280583173,0.0027757117059081,-10.817689895629885,0,0,29.593868255615234,1,1,1000,1000,9.120517,0,0.0016276619862765
1778785739.019724,80204572,1,-0.0014967659953981,0.0002984443854074,0.0015979991294443,-0.0057483874261379,0.0014088494936004,-10.817904472351074,0,0,29.593868255615234,1,1,760,800,9.120517,0,0.0015979991294443
1778785739.0597079,80244556,0,-0.0021217868197709,9.765534923644736e-05,0.0016195706557482,-0.0048082610592246,0.0038170870393514,-10.706565856933594,0,0,29.595922470092773,1,1,1000,1000,9.160501,0,0.0016195706557482
1778785739.0597079,80244556,1,-0.0022205442655831,0.0001324842742178,0.0018100754823535,-0.0077266870066523,0.0031532477587461,-10.704578399658203,0,0,29.595922470092773,1,1,760,800,9.160501,0,0.0018100754823535
1778785739.0996919,80284540,0,-0.0020042539108544,0.0006541284383274,0.0016020210459828,-0.0049926377832889,0.0018829773180186,-10.59882926940918,0,0,29.597976684570312,1,1,1000,1000,9.200485,0,0.0016020210459828
1778785739.0996919,80284540,1,-0.0018283356912434,0.000755917164497,0.0014357494655996,-0.0057508428581058,0.0062560131773352,-10.600348472595217,0,0,29.597976684570312,1,1,760,800,9.200485,0,0.0014357494655996
1778785739.1396759,80324524,0,-0.0019839375745505,0.0006602231878787,0.0015270946314558,-0.0052100960165262,0.0025880809407681,-10.49667739868164,0,0,29.60002899169922,1,1,1000,1000,9.240469,0,0.0015270946314558
1778785739.1396759,80324524,1,-0.0021884401794523,0.000617055571638,0.0017442067619413,-0.0039438549429178,0.0039487527683377,-10.499645233154297,0,0,29.60002899169922,1,1,760,800,9.240469,0,0.0017442067619413
1778785739.1796598,80364508,0,-0.0021877912804484,0.000453340326203,0.0015126039506867,-0.0047655152156949,0.0023011551238596,-10.404989242553713,0,0,29.60208320617676,1,1,1000,1000,9.280453,0,0.0015126039506867
1778785739.1796598,80364508,1,-0.0021624995861202,0.000298725819448,0.0016329324571415,-0.0049645756371319,-0.000553808407858,-10.402857780456545,0,0,29.60208320617676,1,1,760,800,9.280453,0,0.0016329324571415
1778785739.2196438,80404492,0,-0.0017883168766275,-0.0002511497004888,0.001500173122622,-0.0028898022137582,0.0008285894873552,-10.320565223693848,0,0,29.604135513305664,1,1,1000,1000,9.320437,0,0.001500173122622
1778785739.2196438,80404492,1,-0.0016915529267862,-0.0003333076019771,0.0016463191714137,-0.0033093811944127,0.0025982342194765,-10.32126522064209,0,0,29.604135513305664,1,1,760,800,9.320437,0,0.0016463191714137
1778785739.2596278,80444476,0,-0.0024660143535584,-0.0008683866471983,0.0015160742914304,-0.0037759414408355,0.0013295595999807,-10.242137908935549,0,0,29.606189727783203,1,1,1000,1000,9.360421,0,0.0015160742914304
1778785739.2596278,80444476,1,-0.0025953482836484,-0.0010331684025004,0.0015383413992822,-0.0051468648016452,-0.0001774379634298,-10.24299430847168,0,0,29.606189727783203,1,1,760,800,9.360421,0,0.0015383413992822
1778785739.299612,80484460,0,-0.0019810139201581,-0.0012360849650576,0.0015666135586798,-0.0026199489366263,-0.0002185445628128,-10.172760009765623,0,0,29.60824203491211,1,1,1000,1000,9.400405,0,0.0015666135586798
1778785739.299612,80484460,1,-0.0021303188987076,-0.0012481722515076,0.0015676792245358,-0.0039419406093657,-0.0015215531457215,-10.171069145202637,0,0,29.60824203491211,1,1,760,800,9.400405,0,0.0015676792245358
1778785739.339596,80524444,0,-0.0008077990496531,-2.0421528461156413e-05,0.001570432446897,-0.0031520337797701,0.0002246189978905,-10.112546920776367,0,0,29.610292434692383,1,1,1000,1000,9.440389,0,0.001570432446897
1778785739.339596,80524444,1,-0.0008619367727078,-9.353103814646602e-05,0.0017012426396831,-0.0038635001983493,0.000669692759402,-10.114309310913086,0,0,29.610292434692383,1,1,760,800,9.440389,0,0.0017012426396831
1778785739.37958,80564428,0,-0.0007505239918828,0.0002215086133219,0.0015761058311909,-0.002411680528894,-0.0011627154890447,-10.051406860351562,0,0,29.61234474182129,1,1,1000,1000,9.480373,0,0.0015761058311909
1778785739.37958,80564428,1,-0.0009618334588594,0.0003933843108825,0.0017726077931001,-0.0041198534891009,-0.000973914109636,-10.05184841156006,0,0,29.61234474182129,1,1,760,800,9.480373,0,0.0017726077931001
1778785739.419564,80604412,0,-0.0030836421065032,-0.0029722163453698,0.0016101688379421,-0.0022010602988302,-0.0009254067554138,-10.00495147705078,0,0,29.61439514160156,1,1,1000,1000,9.520357,0,0.0016101688379421
1778785739.419564,80604412,1,-0.0030428336467593,-0.0028917719610035,0.0015009196940809,-0.0036070817150175,0.0006871311343275,-10.004476547241213,0,0,29.61439514160156,1,1,760,800,9.520357,0,0.0015009196940809
1778785739.459548,80644396,0,-0.001226516906172,-0.0008093444048427,0.0015455071115866,-0.0013673885259777,-4.761989112012088e-05,-9.95545768737793,0,0,29.61644744873047,1,1,1000,1000,9.560341,0,0.0015455071115866
1778785739.459548,80644396,1,-0.0010054513113573,-0.0007022844511084,0.0014405937399715,-0.0027881246060132,-0.0012103964108973,-9.959223747253418,0,0,29.61644744873047,1,1,760,800,9.560341,0,0.0014405937399715
1778785739.499532,80684380,0,-0.0004991252208128,-0.0030191966798156,0.00135564932134,-0.0018399024847894,-0.0006768036982975,-9.91942024230957,0,0,29.618497848510746,1,1,1000,1000,9.600325,0,0.00135564932134
1778785739.499532,80684380,1,-0.0005854708724655,-0.0029376214370131,0.0014176863478496,-0.0019423230551183,-0.0019917590543627,-9.919437408447266,0,0,29.618497848510746,1,1,760,800,9.600325,0,0.0014176863478496
1778785739.539516,80724364,0,-0.0018562496406957,2.270546247018501e-06,0.0010691653005778,-0.0019403542391955,-0.0008106640307232,-9.886189460754396,0,0,29.62055015563965,1,1,1000,1000,9.640309,0,0.0010691653005778
1778785739.539516,80724364,1,-0.0018989422824233,5.899818643229082e-05,0.0010600173845887,-0.0008347079856321,-1.3832590411766432e-05,-9.887786865234377,0,0,29.62055015563965,1,1,760,800,9.640309,0,0.0010600173845887
1778785739.5795,80764348,0,-0.0012636645697057,-0.0017025350825861,0.0009824926964938,-0.0021089639049023,-0.0002071223279926,-9.855829238891602,0,0,29.62260055541992,1,1,1000,1000,9.680293,0,0.0009824926964938
1778785739.5795,80764348,1,-0.0012225582031533,-0.0018565683858469,0.0009536410216242,-0.0010383267654106,-0.0006329622119665,-9.858465194702148,0,0,29.62260055541992,1,1,760,800,9.680293,0,0.0009536410216242
1778785739.619484,80804332,0,-0.0027406990993767,-0.0014179039280861,0.0006853644736111,-0.0016818133881315,-0.0005821917438879,-9.826647758483888,0,0,29.624650955200195,1,1,1000,1000,9.720277,0,0.0006853644736111
1778785739.619484,80804332,1,-0.0029471172019839,-0.0014408756978809,0.0007753387326374,-0.0022031376138329,-0.0011726401280611,-9.826263427734377,0,0,29.624650955200195,1,1,760,800,9.720277,0,0.0007753387326374
1778785739.659468,80844316,0,-0.0004438304167706,-0.0026411646977066,0.0003778674290515,-0.0011265827342867,-0.0010199936805292,-9.798154830932615,0,0,29.62669944763184,1,1,1000,1000,9.760261,0,0.0003778674290515
1778785739.659468,80844316,1,-0.0005239970632828,-0.0026492616161704,0.0004525089170783,-0.0012869843048974,-0.0009408300975337,-9.798232078552246,0,0,29.62669944763184,1,1,760,800,9.760261,0,0.0004525089170783
1778785739.699452,80884300,0,-0.0003747152513824,-0.0025836436543613,0.0004167321894783,-0.001147671137005,-0.0014017374487593,-9.78564453125,0,0,29.62874984741211,1,1,1000,1000,9.800245,0,0.0004167321894783
1778785739.699452,80884300,1,-0.0004043413500767,-0.0027489128988236,0.0004420961195137,-0.0028931815177202,-0.0006893584504723,-9.785006523132324,0,0,29.62874984741211,1,1,760,800,9.800245,0,0.0004420961195137
1778785739.739436,80924284,0,-0.0001966368436114,-0.0010219711111858,6.649262650171295e-05,-0.001204578555189,-0.0015843593282625,-9.765460014343262,0,0,29.63079833984375,1,1,1000,1000,9.840229,0,6.649262650171295e-05
1778785739.739436,80924284,1,-0.0001376539876218,-0.0009432287188246,-1.799508936528582e-05,-0.0012704798718914,-0.0011007089633494,-9.766520500183104,0,0,29.63079833984375,1,1,760,800,9.840229,0,-1.799508936528582e-05
1778785739.77942,80964268,0,-0.0003204976674169,-0.0020838589407503,4.560947127174586e-05,-0.0006668395362794,-0.0017632136587053,-9.75685691833496,0,0,29.63284683227539,1,1,1000,1000,9.880213,0,4.560947127174586e-05
1778785739.77942,80964268,1,-0.0002948027686215,-0.0020623104646801,0.0001385888317599,-0.0012315395288169,-9.880496509140356e-05,-9.757585525512695,0,0,29.63284683227539,1,1,760,800,9.880213,0,0.0001385888317599
1778785739.819404,81004252,0,-0.000792374194134,9.292048343922944e-05,-0.0004417197196744,-0.0014530515763908,-0.0015280036022886,-9.73874568939209,0,0,29.63489532470703,1,1,1000,1000,9.920197,0,-0.0004417197196744
1778785739.819404,81004252,1,-0.0009049154468812,9.258071077056228e-05,-0.0004292028606869,-0.0016277356771752,-0.0026937508955597,-9.739234924316406,0,0,29.63489532470703,1,1,760,800,9.920197,0,-0.0004292028606869
1778785739.8593879,81044236,0,-0.0006025875918567,0.0010577281937003,-0.0005423032562248,-0.000559089530725,-0.0009290140587836,-9.73378086090088,0,0,29.636943817138672,1,1,1000,1000,9.960181,0,-0.0005423032562248
1778785739.8593879,81044236,1,-0.0005117785185575,0.0008521022973582,-0.0005865727434866,-0.0016556300688534,2.9090984753565863e-05,-9.73358154296875,0,0,29.636943817138672,1,1,760,800,9.960181,0,-0.0005865727434866
1778785739.8993719,81084220,0,-0.0004123337566852,0.0013987470883876,-0.0004294396785553,0.0006767604500055,-0.0014812768204137,-9.734002113342283,0,0,29.63894271850586,1,1,1000,1000,10.000165,1,0.7995705603214447
1778785739.8993719,81084220,1,-0.0004514424072112,0.0013181581161916,-0.0005823603132739,0.0019364221952855,-0.001437971368432,-9.7333984375,0,0,29.63894271850586,1,1,760,800,10.000165,1,0.7994176396867262
1778785739.9393559,81124204,0,-0.0009207673138007,0.0013829175150021,-0.000493963365443,-0.0002569370553828,-0.0022773565724492,-9.72325611114502,0,0,29.6409912109375,1,1,1000,1000,10.040149,1,0.799506036634557
1778785739.9393559,81124204,1,-0.0009262089151889,0.0012972332770004,-0.0004463014192879,0.0017293187556788,0.0012008677003905,-9.723844528198242,0,0,29.6409912109375,1,1,760,800,10.040149,1,0.7995536985807121
1778785739.9793398,81164188,0,-0.0007020124467089,0.0013123837998136,-0.0008088662871159,-0.0005821416270919,-0.0022980018984526,-9.726420402526855,0,0,29.643037796020508,1,1,1000,1000,10.080133,1,0.7991911337128842
1778785739.9793398,81164188,1,-0.0006868409109301,0.0013767948839813,-0.0008476395159959,0.0001082811213564,-0.0049739498645067,-9.725595474243164,0,0,29.643037796020508,1,1,760,800,10.080133,1,0.7991523604840042
1778785740.0193238,81204172,0,0.0008543731528334,-0.0001687092590145,-0.0011607247870415,-0.0011423721443861,-0.0022356209810823,-9.719966888427734,0,0,29.64508438110352,1,1,1000,1000,10.120117,1,0.7988392752129585
1778785740.0193238,81204172,1,0.0008961393614299,-0.0001575441128807,-0.0011869288282468,-0.0027647786773741,-0.0021097264252603,-9.720380783081056,0,0,29.64508438110352,1,1,760,800,10.120117,1,0.7988130711717533
1778785740.0593078,81244156,0,-0.0001342345058219,-0.0003914072003681,-0.0013418443268164,-4.7078934585442767e-05,-0.0020439259242266,-9.71657371520996,0,0,29.64713287353516,1,1,1000,1000,10.160101,1,0.7986581556731837
1778785740.0593078,81244156,1,-0.0001626950106583,-0.0002852133475244,-0.0014732595300301,0.0006550574908033,-0.0024041421711444,-9.714326858520508,0,0,29.64713287353516,1,1,760,800,10.160101,1,0.79852674046997
1778785740.099292,81284140,0,0.0004142938705626,0.001327290199697,-0.0015356664080172,-0.0002695393050089,-0.0015868032351136,-9.719686508178713,0,0,29.649179458618164,1,1,1000,1000,10.200085,1,0.7984643335919829
1778785740.099292,81284140,1,0.0004809069796465,0.00121061259415,-0.0017325554508715,-0.0009996712906286,-0.0005450746975839,-9.72227382659912,0,0,29.649179458618164,1,1,760,800,10.200085,1,0.7982674445491286
1778785740.139276,81324124,0,0.0024535281118005,0.0019685081206262,-0.0016785720363259,-0.0003392180369701,-0.0026046931743621,-9.725366592407228,0,0,29.65122604370117,1,1,1000,1000,10.240069,1,0.7983214279636741
1778785740.139276,81324124,1,0.0025112945586442,0.0018819109536707,-0.0017021892126649,0.0010158555814996,-0.0004083789826836,-9.724495887756348,0,0,29.65122604370117,1,1,760,800,10.240069,1,0.7982978107873352
1778785740.17926,81364108,0,0.0035973291378468,0.0030386445578187,-0.0015734592452645,-0.0012161667691543,-0.0003704293631017,-9.731435775756836,0,0,29.65327262878418,1,1,1000,1000,10.280053,1,0.7984265407547355
1778785740.17926,81364108,1,0.0034650287125259,0.0029895543120801,-0.00163613143377,-0.0007086934056133,-0.0030230928678065,-9.731237411499023,0,0,29.65327262878418,1,1,760,800,10.280053,1,0.7983638685662301
1778785740.219244,81404092,0,0.0036984188482165,0.0030894733499735,-0.0013557841302827,-0.0008040777756832,-0.0013736025430262,-9.734498977661133,0,0,29.655319213867188,1,1,1000,1000,10.320037,1,0.7986442158697173
1778785740.219244,81404092,1,0.003438139334321,0.003266924759373,-0.0012964471243321,-0.0023897427599877,-0.0035439191851764,-9.73625373840332,0,0,29.655319213867188,1,1,760,800,10.320037,1,0.798703552875668
1778785740.259228,81444076,0,0.0023357202298939,0.0025965252425521,-0.0012342092813923,-0.0004424023209139,-0.0014142021536827,-9.736442565917969,0,0,29.65736389160156,1,1,1000,1000,10.360021,1,0.7987657907186078
1778785740.259228,81444076,1,0.0022715597879141,0.0025615915656089,-0.0009213291341438,-0.0026299848686903,-0.0027802854310721,-9.736246109008787,0,0,29.65736389160156,1,1,760,800,10.360021,1,0.7990786708658563
1778785740.299212,81484060,0,0.0015593199059367,0.0013711793581023,-0.0010275120148435,-0.0015541510656476,-0.0007839054451324,-9.739749908447266,0,0,29.659461975097656,1,1,1000,1000,10.400005,1,0.7989724879851565
1778785740.299212,81484060,1,0.0016497836913913,0.0013571430463343,-0.0009871232323348,0.001433762605302,-0.0017398793715983,-9.741159439086914,0,0,29.659408569335938,1,1,760,800,10.400005,1,0.7990128767676652
1778785740.339196,81524044,0,0.0025589088909327,0.0033662698697298,-0.0008975916425697,-0.0009009462082758,-0.0016276655951514,-9.753382682800291,0,0,29.66150665283203,1,1,1000,1000,10.439989,1,0.7991024083574303
1778785740.339196,81524044,1,0.002444467972964,0.003346397075802,-0.000882975407876,-0.000325241999235,-0.0021235821768641,-9.753314971923828,0,0,29.661455154418945,1,1,760,800,10.439989,1,0.7991170245921241
1778785740.37918,81564028,0,0.0024546752683818,0.0030853680800646,-0.0007375808781944,-0.0001675258972682,-0.0023758620955049,-9.75318431854248,0,0,29.663551330566406,1,1,1000,1000,10.479973,1,0.7992624191218056
1778785740.37918,81564028,1,0.0023371865972876,0.0028782207518815,-0.0007522125961259,-0.0013328425120562,-0.0030446946620941,-9.753910064697266,0,0,29.66349983215332,1,1,760,800,10.479973,1,0.7992477874038741
1778785740.4199967,81604845,0,0.0022860886529088,0.0028879968449473,-0.0005998128908686,-0.0016144167166203,-0.0022488180547952,-9.754060745239258,0,0,29.66559600830078,1,1,1000,1000,10.52079,1,0.7994001871091314
1778785740.4199967,81604845,1,0.0021391715854406,0.0028361964505165,-0.000712358567398,-0.0008818520000204,-0.0001536020718049,-9.754091262817385,0,0,29.66559600830078,1,1,760,800,10.52079,1,0.799287641432602
1778785740.4599807,81644829,0,0.0021878951229155,0.0027325602713972,-0.0004361067549325,0.000234710634686,-0.0011677565053105,-9.756059646606444,0,0,29.66764068603516,1,1,1000,1000,10.560774,1,0.7995638932450675
1778785740.4599807,81644829,1,0.0022089779376983,0.0027565006166696,-0.0003592647844925,-0.0005595823749899,-0.0025867130607366,-9.756295204162598,0,0,29.66764068603516,1,1,760,800,10.560774,1,0.7996407352155075
1778785740.4999647,81684813,0,0.0020091428887099,0.0025706028100103,-0.0003518476441968,-0.0005603889003396,-0.002486991463229,-9.7567777633667,0,0,29.66968536376953,1,1,1000,1000,10.600758,1,0.7996481523558032
1778785740.4999647,81684813,1,0.0020193557720631,0.0024450938217341,-0.000359711877536,-0.0010229758918285,-0.0033051799982786,-9.75779914855957,0,0,29.66968536376953,1,1,760,800,10.600758,1,0.799640288122464
1778785740.5399487,81724797,0,0.0019305261084809,0.0023651542142033,-0.0001402105408487,-0.001101640984416,-0.0021571200340986,-9.757726669311523,0,0,29.671728134155277,1,1,1000,1000,10.640742,1,0.7998597894591514
1778785740.5399487,81724797,1,0.002042026957497,0.0024174433201551,-0.0003094301209785,-0.0004909789422526,0.0001698016712907,-9.75676727294922,0,0,29.671728134155277,1,1,760,800,10.640742,1,0.7996905698790215
1778785740.5799327,81764781,0,0.0018692790763452,0.0018438131082803,-0.0003878959687426,0.0009583686478435,-0.0020468397997319,-9.76930046081543,0,0,29.673770904541016,1,1,1000,1000,10.680726,1,0.7996121040312575
1778785740.5799327,81764781,1,0.0019047509413212,0.0019936095923185,-0.0003796633391175,0.0034611285664141,-0.0038307541981339,-9.76839542388916,0,0,29.673770904541016,1,1,760,800,10.680726,1,0.7996203366608825
1778785740.619917,81804765,0,0.001740935142152,0.0022829605732113,-0.0009011284564621,-0.0004504028474912,-0.0026552556082606,-9.775442123413086,0,0,29.67581558227539,1,1,1000,1000,10.72071,1,0.799098871543538
1778785740.619917,81804765,1,0.0018122349865734,0.0025019003078341,-0.0008362542139366,-0.0018715717596933,-0.0024550526868551,-9.775444984436035,0,0,29.67581558227539,1,1,760,800,10.72071,1,0.7991637457860634
1778785740.659901,81844749,0,0.001930559403263,0.0021706642583012,-0.0014203825267031,-0.0004394762800075,-0.000900168379303,-9.783927917480469,0,0,29.677858352661133,1,1,1000,1000,10.760694,1,0.798579617473297
1778785740.659901,81844749,1,0.0018407338066026,0.0022300956770777,-0.0014199496945366,0.0018535550916567,-0.0050263698212802,-9.783708572387695,0,0,29.677858352661133,1,1,760,800,10.760694,1,0.7985800503054634
1778785740.699885,81884733,0,0.002169924089685,0.0020812051370739,-0.0014750491827726,-0.0007843194762244,-0.0016620482783764,-9.78746223449707,0,0,29.679901123046875,1,1,1000,1000,10.800678,1,0.7985249508172274
1778785740.699885,81884733,1,0.0018537958385422,0.0019889948889613,-0.0014470005407929,-0.0001213463692693,-0.0011240171734243,-9.787287712097168,0,0,29.679901123046875,1,1,760,800,10.800678,1,0.7985529994592071
1778785740.7398689,81924717,0,0.0037867308128625,0.0019689120817929,-0.0015367327723652,-0.0009154222207143,-0.0030327294953167,-9.790146827697754,0,0,29.681943893432617,1,1,1000,1000,10.840662,1,0.7984632672276348
1778785740.7398689,81924717,1,0.0036636989098042,0.0020344466902315,-0.001498945406638,-0.0012584046926349,-0.0026787493843585,-9.789161682128906,0,0,29.681943893432617,1,1,760,800,10.840662,1,0.7985010545933621
1778785740.7798529,81964701,0,0.0005254606949165,0.0018778130179271,-0.0014353995211422,0.0013319757999852,-0.0027487222105264,-9.79594612121582,0,0,29.68398666381836,1,1,1000,1000,10.880646,1,0.7985646004788578
1778785740.7798529,81964701,1,0.0003851961228065,0.0021055762190371,-0.0014162580482661,0.0010187471052631,-0.0036408379673957,-9.795720100402832,0,0,29.68398666381836,1,1,760,800,10.880646,1,0.798583741951734
1778785740.8198369,82004685,0,0.0006733919144608,0.0018389573087915,-0.0012791045010089,0.0012929231161251,-0.0013327628839761,-9.795598983764648,0,0,29.68602752685547,1,1,1000,1000,10.92063,1,0.7987208954989912
1778785740.8198369,82004685,1,0.0007903899531811,0.0017751693958416,-0.0011207895586267,-0.001257914933376,-0.002626203931868,-9.79492473602295,0,0,29.68602752685547,1,1,760,800,10.92063,1,0.7988792104413733
1778785740.8598208,82044669,0,0.0006972103146836,0.0016883929492905,-0.0010632895864546,2.6275951313436963e-05,-0.0031442283652722,-9.796270370483398,0,0,29.68807029724121,1,1,1000,1000,10.960614,1,0.7989367104135454
1778785740.8598208,82044669,1,0.0009232971351593,0.0017266049981117,-0.0008780410280451,-0.0011949590407311,-0.0035323149058967,-9.796384811401367,0,0,29.68807029724121,1,1,760,800,10.960614,1,0.7991219589719549
1778785740.8998048,82084653,0,0.0007699899142608,0.0017173150554299,-0.00082771765301,-0.0001646776072448,-0.0019603436812758,-9.79664134979248,0,0,29.690113067626957,1,1,1000,1000,11.000598,1,0.79917228234699
1778785740.8998048,82084653,1,0.0006859494606032,0.0017834794707596,-0.0008642745669931,0.0004890876007266,-0.0022245415020734,-9.799537658691406,0,0,29.690113067626957,1,1,760,800,11.000598,1,0.7991357254330069
1778785740.9397888,82124637,0,0.0039014690555632,0.0016253368230536,-0.0006814978551119,0.0012805617880076,-0.0024840154219418,-9.814861297607422,0,0,29.692153930664062,1,1,1000,1000,11.040582,1,0.7993185021448882
1778785740.9397888,82124637,1,0.0039562457241117,0.0017840994987636,-0.000853476463817,-0.0023759030736982,-0.0011995565146207,-9.815083503723145,0,0,29.692153930664062,1,1,760,800,11.040582,1,0.7991465235361831
1778785740.979773,82164621,0,0.0050047533586621,0.0013068196130916,-0.0010934420861303,0.0005144619499333,-0.0024132027756422,-9.81336784362793,0,0,29.69419479370117,1,1,1000,1000,11.080566,1,0.7989065579138698
1778785740.979773,82164621,1,0.0049685961566865,0.0011543733999133,-0.0008126197499223,0.0004247012548148,-0.002162026008591,-9.815778732299805,0,0,29.69419479370117,1,1,760,800,11.080566,1,0.7991873802500777
1778785741.019757,82204605,0,0.0056695104576647,-0.000142903838423,-0.0009529729140922,0.0002523336443118,-0.002786319470033,-9.810609817504885,0,0,29.69623565673828,1,1,1000,1000,11.12055,1,0.7990470270859078
1778785741.019757,82204605,1,0.0056337574496865,-0.000168747457792,-0.0010038058971986,0.0002856985083781,-0.0017232293030247,-9.810063362121582,0,0,29.69623565673828,1,1,760,800,11.12055,1,0.7989961941028014
1778785741.059741,82244589,0,0.0053745554760098,0.0002921271370723,-0.0008695280412212,-0.0009028667700476,-0.0021134591661393,-9.816533088684082,0,0,29.69827461242676,1,1,1000,1000,11.160534,1,0.7991304719587788
1778785741.059741,82244589,1,0.0054976176470518,0.0004214871441945,-0.0008116252138279,0.0014338003238663,-0.0019447468221187,-9.815135955810549,0,0,29.69827461242676,1,1,760,800,11.160534,1,0.7991883747861721
1778785741.099725,82284573,0,0.0051372656598687,0.0001138425359386,-0.0007494628662243,0.0010479434859007,-0.0016421297332271,-9.817472457885742,0,0,29.700315475463867,1,1,1000,1000,11.200518,1,0.7992505371337757
1778785741.099725,82284573,1,0.0050141112878918,-2.109845081577077e-05,-0.0009542392217554,-0.0007163631962612,-0.0010349296499043,-9.816594123840332,0,0,29.700315475463867,1,1,760,800,11.200518,1,0.7990457607782446
1778785741.139709,82324557,0,0.0048387888818979,0.0015212502330541,-0.0007726395851932,-0.0007486929534934,-0.0015222914516925,-9.818608283996582,0,0,29.702354431152344,1,1,1000,1000,11.240502,1,0.7992273604148068
1778785741.139709,82324557,1,0.0047454354353249,0.0015375042567029,-0.0007066341931931,-0.0006725030252709,-0.0039793844334781,-9.81655216217041,0,0,29.702354431152344,1,1,760,800,11.240502,1,0.799293365806807
1778785741.1796927,82364541,0,0.0039559099823236,0.0026264269836246,-0.0007507196278311,0.0008537076646462,-0.0019685495644807,-9.816728591918944,0,0,29.704395294189453,1,1,1000,1000,11.280486,1,0.7992492803721689
1778785741.1796927,82364541,1,0.0035320497117936,0.0029277338180691,-0.000766760087572,-0.0001007542159641,-0.0021337708458304,-9.815744400024414,0,0,29.704395294189453,1,1,760,800,11.280486,1,0.799233239912428
1778785741.2196767,82404525,0,0.0021280753426253,0.0021646942477673,-0.0006872129742987,0.0006116380682215,-0.0022514383308589,-9.822797775268556,0,0,29.70643424987793,1,1,1000,1000,11.32047,1,0.7993127870257013
1778785741.2196767,82404525,1,0.0020737093873322,0.0021158712916076,-0.0007169697782956,0.0019070992711931,-0.0016294252127408,-9.822013854980469,0,0,29.70643424987793,1,1,760,800,11.32047,1,0.7992830302217044
1778785741.2596607,82444509,0,0.0007596851210109,0.0021966192871332,-0.0008779594791121,6.178108014864847e-05,-0.0033160983584821,-9.822940826416016,0,0,29.708473205566406,1,1,1000,1000,11.360454,1,0.799122040520888
