timestamp,TimeUS,I,GyrX,GyrY,GyrZ,AccX,AccY,AccZ,EG,EA,T,GH,AH,GHz,AHz,TimeSec,AttackActive_IMU,GyrZ_attacked
1778782973.10004,52284078,0,0.0007465238450095,0.0007412591949105,0.0007434969884343,-0.0004757160204462,-0.0002645292552188,-9.817083358764648,0,0,28.091176986694336,1,1,1000,1000,0.0,0,0.0007434969884343
1778782973.10004,52284078,1,0.0007235832163132,0.0005674272542819,0.0008347940747626,-0.0019663993734866,-0.0013274803059175,-9.81544589996338,0,0,28.091176986694336,1,1,760,800,0.0,0,0.0008347940747626
1778782973.140024,52324062,0,0.0006963924970477,0.0007593203336,0.0007636831142008,-6.0803682572441176e-05,-0.0006978246383368,-9.817998886108398,0,0,28.093486785888672,1,1,1000,1000,0.039984,0,0.0007636831142008
1778782973.140024,52324062,1,0.0006729742744937,0.000678246084135,0.0007450208067893,0.0003427665214985,-0.0008938979590311,-9.815789222717283,0,0,28.09343147277832,1,1,760,800,0.039984,0,0.0007450208067893
1778782973.180008,52364046,0,0.0006951491814106,0.0006693127797916,0.0007518978090956,-0.0019835052080452,-0.0008511206833645,-9.81734848022461,0,0,28.095741271972656,1,1,1000,1000,0.079968,0,0.0007518978090956
1778782973.180008,52364046,1,0.000628215551842,0.0006060446612536,0.0007632508641108,-4.8985697503667325e-05,-0.0027864095754921,-9.817038536071776,0,0,28.095685958862305,1,1,760,800,0.079968,0,0.0007632508641108
1778782973.219992,52404030,0,0.000738816044759,0.0007528847199864,0.0008112493669614,-0.0001730646763462,-0.0006093196570873,-9.81736946105957,0,0,28.097993850708008,1,1,1000,1000,0.119952,0,0.0008112493669614
1778782973.219992,52404030,1,0.0006065889610908,0.0006552988779731,0.0005643059266731,-0.0007032755529507,-0.0018305890262126,-9.81659984588623,0,0,28.097938537597656,1,1,760,800,0.119952,0,0.0005643059266731
1778782973.2608092,52444847,0,0.0007354685221798,0.0007922094082459,0.0006220255745574,-0.0005183048779144,-0.0007202445412985,-9.818108558654783,0,0,28.100248336791992,1,1,1000,1000,0.160769,0,0.0006220255745574
1778782973.2608092,52444847,1,0.0007041596109047,0.0006599382613785,0.000755503133405,-0.0017170975916087,-0.0022612542379647,-9.814448356628418,0,0,28.100248336791992,1,1,760,800,0.160769,0,0.000755503133405
1778782973.3007932,52484831,0,0.0006747443694621,0.000746204634197,0.0008033996564336,-0.0005878584343008,-0.001212322502397,-9.81717014312744,0,0,28.102500915527344,1,1,1000,1000,0.200753,0,0.0008033996564336
1778782973.3007932,52484831,1,0.0006735608330927,0.0005242623738013,0.0008959576953202,-0.0022118466440588,-0.0013930684654042,-9.81795597076416,0,0,28.102500915527344,1,1,760,800,0.200753,0,0.0008959576953202
1778782973.3407772,52524815,0,0.0007750287186354,0.0007080374052748,0.0007411651313304,-0.001024720724672,-0.0003005180915351,-9.818476676940918,0,0,28.10475349426269,1,1,1000,1000,0.240737,0,0.0007411651313304
1778782973.3407772,52524815,1,0.001089128665626,0.0005214473931118,0.0007205129950307,-0.0018433518707752,-0.003961862064898,-9.81652545928955,0,0,28.10475349426269,1,1,760,800,0.240737,0,0.0007205129950307
1778782973.3807611,52564799,0,0.0006965189240872,0.0006978996680118,0.0007347916834987,0.0002052924683084,-0.0006676716147921,-9.81851863861084,0,0,28.107006072998047,1,1,1000,1000,0.280721,0,0.0007347916834987
1778782973.3807611,52564799,1,0.0005106352036818,0.0007187216542661,0.0009520965395495,0.0004811869875993,-0.0011417178902775,-9.815584182739258,0,0,28.107006072998047,1,1,760,800,0.280721,0,0.0009520965395495
1778782973.4207451,52604783,0,0.0007667054887861,0.0007557753124274,0.000810116995126,-0.000518204527907,-0.001021834439598,-9.816067695617676,0,0,28.10926055908203,1,1,1000,1000,0.320705,0,0.000810116995126
1778782973.4207451,52604783,1,0.0006251197773963,0.0009214971214532,0.0005866338615305,-0.0015002160798758,-0.0029401688370853,-9.816922187805176,0,0,28.10926055908203,1,1,760,800,0.320705,0,0.0005866338615305
1778782973.4607291,52644767,0,0.000744571967516,0.0006692082388326,0.0007255672826431,-0.0012510111555457,-0.0014020742382854,-9.817830085754396,0,0,28.11151123046875,1,1,1000,1000,0.360689,0,0.0007255672826431
1778782973.4607291,52644767,1,0.0009131667320616,0.0006453867536038,0.0010840164031833,-0.0018957026768475,-0.0002248745440738,-9.815414428710938,0,0,28.11151123046875,1,1,760,800,0.360689,0,0.0010840164031833
1778782973.500713,52684751,0,0.000754838110879,0.0008145965402945,0.0007945000543259,-0.0006697273347526,-0.0011819161009043,-9.817950248718262,0,0,28.1137638092041,1,1,1000,1000,0.400673,0,0.0007945000543259
1778782973.500713,52684751,1,0.0008152302470989,0.0005120090791024,0.0008129237103275,0.0004825844953302,-0.0011439602822065,-9.818155288696287,0,0,28.1137638092041,1,1,760,800,0.400673,0,0.0008129237103275
1778782973.540697,52724735,0,0.0007135872147046,0.0007855999283492,0.0006456365808844,-0.0009698016801849,-0.0008001958485692,-9.817928314208984,0,0,28.11601448059082,1,1,1000,1000,0.440657,0,0.0006456365808844
1778782973.540697,52724735,1,0.0006383256986737,0.0005506145535036,0.0004355663259048,-0.0002829702862072,-0.0005754365702159,-9.817679405212402,0,0,28.11601448059082,1,1,760,800,0.440657,0,0.0004355663259048
1778782973.580681,52764719,0,0.0007011370616964,0.0007563335238955,0.0007851714035496,-0.0006091430550441,-0.0003626645775511,-9.81878662109375,0,0,28.11826515197754,1,1,1000,1000,0.480641,0,0.0007851714035496
1778782973.580681,52764719,1,0.0006338681560009,0.0006826521130278,0.0007860977202653,-0.0008394685573875,0.0007781541207805,-9.817957878112791,0,0,28.11826515197754,1,1,760,800,0.480641,0,0.0007860977202653
1778782973.620665,52804703,0,0.0007457840838469,0.0007099686190485,0.0008249541861005,-0.0012501120800152,-0.0008960177656263,-9.816513061523438,0,0,28.120515823364254,1,1,1000,1000,0.520625,0,0.0008249541861005
1778782973.620665,52804703,1,0.0006081539904698,0.0008935360820032,0.0008834641776047,-0.0048585594631731,-0.0041012945584952,-9.818674087524414,0,0,28.120515823364254,1,1,760,800,0.520625,0,0.0008834641776047
1778782973.660649,52844687,0,0.0007026743260212,0.0007445980445481,0.0007410897524096,-0.0004660148988477,-0.0005950636113993,-9.817463874816896,0,0,28.122766494750977,1,1,1000,1000,0.560609,0,0.0007410897524096
1778782973.660649,52844687,1,0.0008126805769279,0.0005809087306261,0.0006849060882814,-0.0023929527960717,-0.0007273720111697,-9.816217422485352,0,0,28.122766494750977,1,1,760,800,0.560609,0,0.0006849060882814
1778782973.700633,52884671,0,0.0007599900709465,0.0006592004210688,0.0007698279805481,-0.0008680149912834,-0.00011474556959,-9.816381454467772,0,0,28.12501716613769,1,1,1000,1000,0.600593,0,0.0007698279805481
1778782973.700633,52884671,1,0.0008748180698603,0.0006537439185194,0.0003770539187826,-0.0008648324292153,-0.0017034336924552,-9.816675186157228,0,0,28.12501716613769,1,1,760,800,0.600593,0,0.0003770539187826
1778782973.740617,52924655,0,0.0007738266140222,0.0006869906792417,0.0007676817476749,-0.0013958616182208,-0.0010073259472846,-9.817355155944824,0,0,28.12726593017578,1,1,1000,1000,0.640577,0,0.0007676817476749
1778782973.740617,52924655,1,0.0006693671457469,0.0007348632789216,0.0009440249996259,-0.0017613254021853,-0.0017507820157334,-9.817033767700195,0,0,28.12726593017578,1,1,760,800,0.640577,0,0.0009440249996259
1778782973.780601,52964639,0,0.0007291859947144,0.000767087447457,0.0007852865383028,-0.0011332904687151,-0.000837997009512,-9.81849193572998,0,0,28.1295166015625,1,1,1000,1000,0.680561,0,0.0007852865383028
1778782973.780601,52964639,1,0.0008019297965802,0.0004350085218902,0.0006233570748008,-0.002202819334343,-0.0010035815648734,-9.8175048828125,0,0,28.1295166015625,1,1,760,800,0.680561,0,0.0006233570748008
1778782973.820585,53004623,0,0.0006833192892372,0.0007496363250538,0.0007706651231274,-0.0018022488802671,-0.0005696701700799,-9.816550254821776,0,0,28.131765365600582,1,1,1000,1000,0.720545,0,0.0007706651231274
1778782973.820585,53004623,1,0.0007252324139699,0.0008527984609827,0.0007854985306039,-0.0007135822670534,0.0007414012216031,-9.81663703918457,0,0,28.131765365600582,1,1,760,800,0.720545,0,0.0007854985306039
1778782973.860569,53044607,0,0.0007825220236554,0.0006759053794667,0.0007563316612504,-0.0023081302642822,-0.0003917463473044,-9.817139625549316,0,0,28.134014129638672,1,1,1000,1000,0.760529,0,0.0007563316612504
1778782973.860569,53044607,1,0.0006483112229034,0.0007311187218874,0.0006890442455187,-0.0009143626084551,-0.0007875493029132,-9.817975997924805,0,0,28.134014129638672,1,1,760,800,0.760529,0,0.0006890442455187
1778782973.9005527,53084591,0,0.000720168929547,0.0007257364341057,0.0007772126118652,-0.0013740457361564,-0.0012220811331644,-9.815970420837402,0,0,28.13626289367676,1,1,1000,1000,0.800513,0,0.0007772126118652
1778782973.9005527,53084591,1,0.0011057914234697,0.0006184631492942,0.0008579632267355,0.0007845353684388,-0.0010964875109493,-9.81930446624756,0,0,28.13626289367676,1,1,760,800,0.800513,0,0.0008579632267355
1778782973.9405367,53124575,0,0.0007284611929208,0.0007792946998961,0.0007340191514231,-0.0022211244795471,-0.0007003695936873,-9.81744384765625,0,0,28.138511657714844,1,1,1000,1000,0.840497,0,0.0007340191514231
1778782973.9405367,53124575,1,0.0005195693811401,0.0010566681157797,0.0006922741886228,-0.0014136823592707,-0.001552902162075,-9.817401885986328,0,0,28.138511657714844,1,1,760,800,0.840497,0,0.0006922741886228
1778782973.9805207,53164559,0,0.0007546519045718,0.0008127834298647,0.0007300094002857,-0.0008347760885953,-0.0013839458115398,-9.817523956298828,0,0,28.140758514404297,1,1,1000,1000,0.880481,0,0.0007300094002857
1778782973.9805207,53164559,1,0.0006949104135856,0.0008776950417086,0.0008801651420071,0.001308751758188,-0.0020472398027777,-9.816268920898438,0,0,28.140758514404297,1,1,760,800,0.880481,0,0.0008801651420071
1778782974.0205052,53204543,0,0.0007310535293072,0.0007342809694819,0.0007096697809174,-0.0011572565417736,-0.0024020532146096,-9.81715965270996,0,0,28.143007278442383,1,1,1000,1000,0.920465,0,0.0007096697809174
1778782974.0205052,53204543,1,0.0006920632440596,0.0008198482682928,0.0007188485469669,-0.0012635138118639,0.000630201480817,-9.815528869628906,0,0,28.143007278442383,1,1,760,800,0.920465,0,0.0007188485469669
1778782974.0604892,53244527,0,0.0007580468663945,0.0007464328664354,0.000734698260203,-0.0007992454338818,-0.0015799608081579,-9.816733360290527,0,0,28.14525413513184,1,1,1000,1000,0.960449,0,0.000734698260203
1778782974.0604892,53244527,1,0.0006806256715208,0.0005906812730245,0.0007425065268762,-0.0006113083218224,-0.0030880237463861,-9.818034172058104,0,0,28.14525413513184,1,1,760,800,0.960449,0,0.0007425065268762
1778782974.1004732,53284511,0,0.0007715761312283,0.0006426817853935,0.000773356645368,-0.0007084825774654,-0.0012074942933395,-9.817736625671388,0,0,28.14750289916992,1,1,1000,1000,1.000433,0,0.000773356645368
1778782974.1004732,53284511,1,0.0008377818157896,0.0009850186761468,0.0007220453117042,-0.0034066336229443,0.0003452930541243,-9.816866874694824,0,0,28.14750289916992,1,1,760,800,1.000433,0,0.0007220453117042
1778782974.1404572,53324495,0,0.0007625016150996,0.0007023849757388,0.0007263325969688,-0.0006297749932855,-0.001305163372308,-9.817586898803713,0,0,28.149747848510746,1,1,1000,1000,1.040417,0,0.0007263325969688
1778782974.1404572,53324495,1,0.0007039785850793,0.0009338022209703,0.0007370507810264,-0.0027445701416581,-0.0011599701829254,-9.820484161376951,0,0,28.149747848510746,1,1,760,800,1.040417,0,0.0007370507810264
1778782974.1804411,53364479,0,0.0008259342284873,0.0007658650283701,0.0006667716661468,0.0001975553605007,-0.0009336462826468,-9.817177772521973,0,0,28.151994705200195,1,1,1000,1000,1.080401,0,0.0006667716661468
1778782974.1804411,53364479,1,0.0010029717814177,0.000713849440217,0.0006753537454642,-0.002711932407692,-0.0003876586852129,-9.8190279006958,0,0,28.151994705200195,1,1,760,800,1.080401,0,0.0006753537454642
1778782974.2204251,53404463,0,0.0007286082836799,0.0007146447896957,0.0007128191646188,-0.0003131621051579,-0.0004928999114781,-9.817394256591797,0,0,28.15424156188965,1,1,1000,1000,1.120385,0,0.0007128191646188
1778782974.2204251,53404463,1,0.0008342181681655,0.0006369733600877,0.0007153261103667,-0.0002183374162996,-0.0004434807633515,-9.814775466918944,0,0,28.15424156188965,1,1,760,800,1.120385,0,0.0007153261103667
1778782974.260409,53444447,0,0.0007478574989363,0.0007680440321564,0.0007055587484501,-0.0017478354275226,-0.0007265992462635,-9.81802463531494,0,0,28.15648651123047,1,1,1000,1000,1.160369,0,0.0007055587484501
1778782974.260409,53444447,1,0.0008719945326447,0.0006528526428155,0.0005421790992841,-0.002978742821142,-0.0028669005259871,-9.816062927246094,0,0,28.15648651123047,1,1,760,800,1.160369,0,0.0005421790992841
1778782974.300393,53484431,0,0.0008110016351565,0.000780303380452,0.0007105325348675,-0.0013640131801366,-8.742372301639989e-05,-9.81764793395996,0,0,28.15873336791992,1,1,1000,1000,1.200353,0,0.0007105325348675
1778782974.300393,53484431,1,0.0007542774546891,0.0006073997355997,0.0006282060639932,-0.0004942518426105,-5.294840957503766e-05,-9.814739227294922,0,0,28.15873336791992,1,1,760,800,1.200353,0,0.0006282060639932
1778782974.340377,53524415,0,0.0007291913498193,0.0007399690221063,0.0007556078489869,-0.0016148041468113,-0.0006240044604055,-9.817914009094238,0,0,28.16097640991211,1,1,1000,1000,1.240337,0,0.0007556078489869
1778782974.340377,53524415,1,0.0007985024712979,0.0009029927314259,0.0007948743877932,-0.0026207438204437,0.0003034400288015,-9.8172025680542,0,0,28.16097640991211,1,1,760,800,1.240337,0,0.0007948743877932
1778782974.380361,53564399,0,0.0007313583046197,0.0007382891490124,0.0007662827265448,-0.0006406079046428,-0.0009319750242866,-9.817164421081545,0,0,28.16322326660156,1,1,1000,1000,1.280321,0,0.0007662827265448
1778782974.380361,53564399,1,0.0009481864399276,0.0008233757107518,0.000832762918435,-0.0002279148320667,-0.0010976220946758,-9.818553924560549,0,0,28.16322326660156,1,1,760,800,1.280321,0,0.000832762918435
1778782974.420345,53604383,0,0.0007950944709591,0.0007397244917228,0.0007772069657221,-0.0010918161133304,-0.0014018664369359,-9.817241668701172,0,0,28.165468215942383,1,1,1000,1000,1.320305,0,0.0007772069657221
1778782974.420345,53604383,1,0.0006959510501474,0.0007550730369985,0.0008999792626127,-0.0023673109244555,-0.0001347098732367,-9.815601348876951,0,0,28.165468215942383,1,1,760,800,1.320305,0,0.0008999792626127
1778782974.460329,53644367,0,0.0007309331558644,0.0008046794682741,0.0008110628696158,-0.0021441597491502,-0.0016163805266842,-9.81668186187744,0,0,28.167713165283203,1,1,1000,1000,1.360289,0,0.0008110628696158
1778782974.460329,53644367,1,0.0006706962594762,0.0009702037787064,0.0008073631906881,0.0004729517386294,-0.0009275504271499,-9.81859016418457,0,0,28.167713165283203,1,1,760,800,1.360289,0,0.0008073631906881
1778782974.500313,53684351,0,0.0006906555499881,0.0007427876116707,0.0008109366754069,-0.0002830746525432,-0.0014663316542282,-9.817510604858398,0,0,28.16995620727539,1,1,1000,1000,1.400273,0,0.0008109366754069
1778782974.500313,53684351,1,0.0005172340897843,0.0005729352706111,0.0007799287559464,-0.0003039082512259,-1.7264756024815142e-05,-9.81736946105957,0,0,28.16995620727539,1,1,760,800,1.400273,0,0.0007799287559464
1778782974.540297,53724335,0,0.0007589449523948,0.0007606521248817,0.0007324367761611,-0.0013006218941882,-0.0012768511660397,-9.816977500915527,0,0,28.172199249267575,1,1,1000,1000,1.440257,0,0.0007324367761611
1778782974.540297,53724335,1,0.0005564235616475,0.0007454559672623,0.0007627619779668,-0.001893292996101,-0.0005049979663453,-9.815479278564451,0,0,28.172199249267575,1,1,760,800,1.440257,0,0.0007627619779668
1778782974.580281,53764319,0,0.0008417195640504,0.0007590973982587,0.0007413047133013,-0.0016248924657702,-0.0011300303740426,-9.816763877868652,0,0,28.17444229125977,1,1,1000,1000,1.480241,0,0.0007413047133013
1778782974.580281,53764319,1,0.0007163650589063,0.0009062821627594,0.0008278574096038,6.252034654607996e-05,-0.0010156037751585,-9.816221237182615,0,0,28.17444229125977,1,1,760,800,1.480241,0,0.0008278574096038
1778782974.620265,53804303,0,0.0007804989581927,0.0006740030366927,0.0006697915960103,-0.0019728213082998,-0.0012033906532451,-9.81818675994873,0,0,28.176687240600582,1,1,1000,1000,1.520225,0,0.0006697915960103
1778782974.620265,53804303,1,0.0009015133255161,0.0006644562236033,0.0005556227406486,-0.001282388344407,-0.0001991409517358,-9.820545196533203,0,0,28.176687240600582,1,1,760,800,1.520225,0,0.0005556227406486
1778782974.6602488,53844287,0,0.0007099301437847,0.0007325579645112,0.0006428086198866,-0.0003488771035335,-0.0006782984128221,-9.81727695465088,0,0,28.178930282592773,1,1,1000,1000,1.560209,0,0.0006428086198866
1778782974.6602488,53844287,1,0.0006128383683972,0.0007809030357748,0.0007722228765487,-0.0041557485237717,-0.0002221188333351,-9.817852020263672,0,0,28.178930282592773,1,1,760,800,1.560209,0,0.0007722228765487
1778782974.7002327,53884271,0,0.0008160695433616,0.0007507532718591,0.0007736743427813,-0.0025880434550344,-0.0005222831387072,-9.817023277282717,0,0,28.18117332458496,1,1,1000,1000,1.600193,0,0.0007736743427813
1778782974.7002327,53884271,1,0.0008927109302021,0.0007912087603472,0.0006429622299037,-0.0006047709612175,0.0008707873057574,-9.816768646240234,0,0,28.18117332458496,1,1,760,800,1.600193,0,0.0006429622299037
1778782974.7402167,53924255,0,0.0008212003158405,0.000785592244938,0.0007712974329479,-0.0005103152361698,-0.0013188639422878,-9.815871238708496,0,0,28.18341445922852,1,1,1000,1000,1.640177,0,0.0007712974329479
1778782974.7402167,53924255,1,0.0006920551531948,0.0007479989435523,0.0007830057293176,-0.0028177523054182,-0.0011178761487826,-9.818973541259766,0,0,28.18341445922852,1,1,760,800,1.640177,0,0.0007830057293176
1778782974.7802007,53964239,0,0.0008147762273438,0.0007058999035507,0.0007180783431977,-0.0024936052504926,-0.00110420351848,-9.818558692932127,0,0,28.185657501220703,1,1,1000,1000,1.680161,0,0.0007180783431977
1778782974.7802007,53964239,1,0.0008037759107537,0.0009187077521346,0.0007881284691393,-0.0010970969451591,-0.0020989524200558,-9.813881874084473,0,0,28.185657501220703,1,1,760,800,1.680161,0,0.0007881284691393
1778782974.8201852,54004223,0,0.0007707061595283,0.0008748440304771,0.0008180427830666,-0.0005613945540972,-0.0005899126990698,-9.817009925842283,0,0,28.187843322753903,1,1,1000,1000,1.720145,0,0.0008180427830666
1778782974.8201852,54004223,1,0.0006077716825529,0.0010284876916557,0.0006732563488185,-0.0024490137584507,0.0005530633497983,-9.81737232208252,0,0,28.187843322753903,1,1,760,800,1.720145,0,0.0006732563488185
1778782974.8601692,54044207,0,0.0007998895598575,0.0007801273604854,0.0007975188200362,-0.0010084994137287,-0.0009750759927555,-9.817920684814451,0,0,28.19008445739746,1,1,1000,1000,1.760129,0,0.0007975188200362
1778782974.8601692,54044207,1,0.0007637431845068,0.0008714675204828,0.0009459347929805,-0.0011207750067114,0.0009147750679403,-9.81738567352295,0,0,28.19008445739746,1,1,760,800,1.760129,0,0.0009459347929805
1778782974.9001532,54084191,0,0.0008218907751142,0.0008432319154962,0.0008020846871659,-0.0006741922115907,-0.000934679643251,-9.816974639892578,0,0,28.192325592041016,1,1,1000,1000,1.800113,0,0.0008020846871659
1778782974.9001532,54084191,1,0.0006561022019013,0.0007566231652162,0.0008066671434789,-0.000530110031832,-0.0017730775289237,-9.817895889282228,0,0,28.192325592041016,1,1,760,800,1.800113,0,0.0008066671434789
1778782974.9401371,54124175,0,0.0007842205232009,0.0007744274334982,0.0007816557772457,-0.0009836088865995,-0.000515742751304,-9.819421768188477,0,0,28.194564819335938,1,1,1000,1000,1.840097,0,0.0007816557772457
1778782974.9401371,54124175,1,0.0007273131050169,0.0009002683218568,0.000805479590781,-0.0003853016823995,0.0003814238589257,-9.816123008728027,0,0,28.194564819335938,1,1,760,800,1.840097,0,0.000805479590781
1778782974.9801211,54164159,0,0.0007694272790104,0.0007822396000847,0.0007530387374572,-0.0022114019375294,-0.0003242019738536,-9.816529273986816,0,0,28.196807861328125,1,1,1000,1000,1.880081,0,0.0007530387374572
1778782974.9801211,54164159,1,0.0007325377664528,0.0007520689396187,0.0010436704615131,-0.0013162217801436,-0.0007661257404834,-9.81679344177246,0,0,28.196807861328125,1,1,760,800,1.880081,0,0.0010436704615131
1778782975.0201051,54204143,0,0.0007422312628477,0.0007845947984606,0.0007518476340919,-0.0002545423049014,-0.0010260879062116,-9.816851615905762,0,0,28.199047088623047,1,1,1000,1000,1.920065,0,0.0007518476340919
1778782975.0201051,54204143,1,0.0007143932743929,0.0008784978417679,0.000912090181373,-0.0006319780950434,-0.002282834611833,-9.817941665649414,0,0,28.199047088623047,1,1,760,800,1.920065,0,0.000912090181373
1778782975.060089,54244127,0,0.0007899528718553,0.0007592978654429,0.000754230772145,-0.0015982635086402,-0.0013500151690095,-9.818096160888672,0,0,28.20128631591797,1,1,1000,1000,1.960049,0,0.000754230772145
1778782975.060089,54244127,1,0.0006573092541657,0.0006062816828489,0.0007249438203871,-0.0014221864985302,-0.0015736056957393,-9.818367958068848,0,0,28.20128631591797,1,1,760,800,1.960049,0,0.0007249438203871
1778782975.100073,54284111,0,0.0008130498463287,0.000720692158211,0.0007371040410362,-0.000591876800172,-0.0016128194984048,-9.816983222961426,0,0,28.203527450561523,1,1,1000,1000,2.000033,0,0.0007371040410362
1778782975.100073,54284111,1,0.0009003439336083,0.0007558864308521,0.0006877949344925,-0.0016014324501156,-0.0028579619247466,-9.81476879119873,0,0,28.203527450561523,1,1,760,800,2.000033,0,0.0006877949344925
1778782975.140057,54324095,0,0.0007884862716309,0.0008088943432085,0.000791608239524,-0.0013621542602777,-0.0011732876300811,-9.817581176757812,0,0,28.205766677856445,1,1,1000,1000,2.040017,0,0.000791608239524
1778782975.140057,54324095,1,0.0007824932690709,0.0009150574915111,0.0009304738487116,-0.0023727365769445,-0.0002606237248983,-9.81692123413086,0,0,28.205766677856445,1,1,760,800,2.040017,0,0.0009304738487116
1778782975.180041,54364079,0,0.0007697293767705,0.000751411775127,0.0007058119517751,-0.0010116136400029,-0.0007452779682353,-9.817038536071776,0,0,28.208005905151367,1,1,1000,1000,2.080001,0,0.0007058119517751
1778782975.180041,54364079,1,0.0008865525014698,0.0008527897298336,0.0007730502984486,-0.0009741242974996,-0.0017200078582391,-9.816608428955078,0,0,28.208005905151367,1,1,760,800,2.080001,0,0.0007730502984486
1778782975.220025,54404063,0,0.0007187769515439,0.0007685784366913,0.0008319949265569,-0.000644945539534,-0.0020602820441126,-9.816017150878906,0,0,28.21030044555664,1,1,1000,1000,2.119985,0,0.0008319949265569
1778782975.220025,54404063,1,0.0004800249589607,0.000675574876368,0.0006060167797841,-0.0012013404630124,-0.0021053501404821,-9.81604290008545,0,0,28.210243225097656,1,1,760,800,2.119985,0,0.0006060167797841
1778782975.260009,54444047,0,0.0007986617274582,0.0007665689336135,0.0007353173568844,-0.0013806840870529,-0.0017751930281519,-9.81789779663086,0,0,28.21253967285156,1,1,1000,1000,2.159969,0,0.0007353173568844
1778782975.260009,54444047,1,0.0005295561859384,0.0006795382359996,0.0008642780594527,5.2109608077444136e-05,-0.0008865013951435,-9.819214820861816,0,0,28.212482452392575,1,1,760,800,2.159969,0,0.0008642780594527
1778782975.299993,54484031,0,0.0007356034475378,0.0007314318791031,0.0008381597581319,-0.0002700212353374,-0.0006148950778879,-9.816486358642578,0,0,28.21477699279785,1,1,1000,1000,2.199953,0,0.0008381597581319
1778782975.299993,54484031,1,0.0010158901568502,0.0006764835561625,0.0007215734804049,0.0003553484857548,-0.0010427330853417,-9.818999290466309,0,0,28.214719772338867,1,1,760,800,2.199953,0,0.0007215734804049
1778782975.34081,54524848,0,0.0007111359154805,0.0007362868054769,0.0006948679219931,-0.0017249885713681,-0.0002497040841262,-9.817964553833008,0,0,28.21701431274414,1,1,1000,1000,2.24077,0,0.0006948679219931
1778782975.34081,54524848,1,0.0006614318117499,0.0008747781394049,0.0007252469658851,-0.0016720563871785,-0.0033104442991316,-9.816890716552734,0,0,28.21701431274414,1,1,760,800,2.24077,0,0.0007252469658851
1778782975.380794,54564832,0,0.0007798869046382,0.0007038870244286,0.0007189107127487,-0.002375763375312,-0.0029419818893074,-9.817480087280272,0,0,28.21925163269043,1,1,1000,1000,2.280754,0,0.0007189107127487
1778782975.380794,54564832,1,0.0006729120505042,0.000873145298101,0.0007132546743378,-0.0006429133936762,-0.0005882116965949,-9.815119743347168,0,0,28.21925163269043,1,1,760,800,2.280754,0,0.0007132546743378
1778782975.420778,54604816,0,0.0007601986872032,0.0007443065987899,0.0008099894039332,-0.0015608376124873,-0.0009703534888103,-9.817300796508787,0,0,28.22148895263672,1,1,1000,1000,2.320738,0,0.0008099894039332
1778782975.420778,54604816,1,0.0008826088160276,0.0009822453139349,0.0008187325438484,-0.0007306144689209,-9.079003939405084e-05,-9.81895923614502,0,0,28.22148895263672,1,1,760,800,2.320738,0,0.0008187325438484
1778782975.460762,54644800,0,0.000763235555496,0.0007332921959459,0.0006968560628592,-0.0010798728326335,-4.8650719691067934e-05,-9.81747817993164,0,0,28.223726272583008,1,1,1000,1000,2.360722,0,0.0006968560628592
1778782975.460762,54644800,1,0.0008820737130008,0.000674074573908,0.0008326278766617,-0.003005216596648,6.845885218353942e-05,-9.817636489868164,0,0,28.223726272583008,1,1,760,800,2.360722,0,0.0008326278766617
1778782975.500746,54684784,0,0.0007632337510585,0.0008201849414035,0.0007203433779068,-0.0013748354976996,-0.0011436319909989,-9.8185453414917,0,0,28.225963592529297,1,1,1000,1000,2.400706,0,0.0007203433779068
1778782975.500746,54684784,1,0.0008496498921886,0.0009124203352257,0.000835086160805,-0.0002398867945885,-0.0008836010820232,-9.81648063659668,0,0,28.225963592529297,1,1,760,800,2.400706,0,0.000835086160805
1778782975.54073,54724768,0,0.0007453829166479,0.0007564591942355,0.0006857920670881,-0.000220282599912,-0.0012934040278196,-9.81711483001709,0,0,28.228199005126957,1,1,1000,1000,2.44069,0,0.0006857920670881
1778782975.54073,54724768,1,0.0007429469842463,0.0008596171392127,0.0007406161166727,8.253066334873438e-05,-0.0004203924909234,-9.81705093383789,0,0,28.228199005126957,1,1,760,800,2.44069,0,0.0007406161166727
1778782975.580714,54764752,0,0.0007022147765383,0.0008043778943829,0.000738481641747,-0.0001815487921703,-0.000125080201542,-9.815584182739258,0,0,28.23043632507324,1,1,1000,1000,2.480674,0,0.000738481641747
1778782975.580714,54764752,1,0.0007489656563848,0.0006654324242845,0.0008575411047786,-0.0020317903254181,-0.0005300834891386,-9.818063735961914,0,0,28.23043632507324,1,1,760,800,2.480674,0,0.0008575411047786
1778782975.620698,54804736,0,0.0007110693841241,0.0006834577070549,0.0008838217472657,-0.001153418677859,-0.0025123450905084,-9.817767143249512,0,0,28.2326717376709,1,1,1000,1000,2.520658,0,0.0008838217472657
1778782975.620698,54804736,1,0.0005396697670221,0.0005483420100063,0.0009531704126857,0.0004481796640902,-0.0023414602037519,-9.816900253295898,0,0,28.2326717376709,1,1,760,800,2.520658,0,0.0009531704126857
1778782975.660682,54844720,0,0.0007532953750342,0.0007933768793009,0.000829110853374,-0.0012782484991475,-0.0018073774408549,-9.817476272583008,0,0,28.234907150268555,1,1,1000,1000,2.560642,0,0.000829110853374
1778782975.660682,54844720,1,0.0006995175499469,0.0009388071484863,0.000742194650229,-0.0013759937137365,-0.0016485300147905,-9.815008163452148,0,0,28.234907150268555,1,1,760,800,2.560642,0,0.000742194650229
1778782975.700666,54884704,0,0.0007825370412319,0.0008080964908003,0.0006702472455799,-0.0009855643147602,-0.0005862026591785,-9.81676959991455,0,0,28.23714256286621,1,1,1000,1000,2.600626,0,0.0006702472455799
1778782975.700666,54884704,1,0.0008231615647673,0.0007855730364099,0.0007522980449721,-0.0026794834993779,-0.0001108602809836,-9.818731307983398,0,0,28.23714256286621,1,1,760,800,2.600626,0,0.0007522980449721
1778782975.74065,54924688,0,0.0008139138808473,0.0006695587653666,0.0007791834068484,-0.0006552817067131,-0.0011631693923845,-9.816843032836914,0,0,28.239376068115234,1,1,1000,1000,2.64061,0,0.0007791834068484
1778782975.74065,54924688,1,0.000803587725386,0.0008541657589375,0.0008136369287967,-0.0018635018495842,-0.0012014198582619,-9.816272735595703,0,0,28.239376068115234,1,1,760,800,2.64061,0,0.0008136369287967
1778782975.780634,54964672,0,0.0008938585524447,0.0007450585253536,0.0007884340011514,-0.0001842615602072,0.0001012776046991,-9.816888809204102,0,0,28.24161148071289,1,1,1000,1000,2.680594,0,0.0007884340011514
1778782975.780634,54964672,1,0.0007398021407425,0.0007430296391248,0.0005520586273632,-0.0009740679524838,-0.0001415884471498,-9.8199462890625,0,0,28.24161148071289,1,1,760,800,2.680594,0,0.0005520586273632
1778782975.820618,55004656,0,0.000680404540617,0.0007200219552032,0.0007793286931701,-0.0011528618633747,0.0001944467658177,-9.816946029663086,0,0,28.243844985961918,1,1,1000,1000,2.720578,0,0.0007793286931701
1778782975.820618,55004656,1,0.0006861475412733,0.0007423619972541,0.0005840924568474,-0.000798764929641,-0.00183998409193,-9.819265365600586,0,0,28.243844985961918,1,1,760,800,2.720578,0,0.0005840924568474
1778782975.860602,55044640,0,0.000834941281937,0.0008077892125584,0.0007297160918824,-0.0006222160300239,-0.0005929733742959,-9.817517280578612,0,0,28.24608039855957,1,1,1000,1000,2.760562,0,0.0007297160918824
1778782975.860602,55044640,1,0.0007959227077662,0.0007155067287385,0.0010662885615602,-0.0022626733407378,-0.0003039485309273,-9.817903518676758,0,0,28.24608039855957,1,1,760,800,2.760562,0,0.0010662885615602
1778782975.900586,55084624,0,0.0007627920713275,0.0007461320492438,0.0006892498931847,-0.0009251241572201,-0.0007411306723952,-9.81791877746582,0,0,28.248313903808597,1,1,1000,1000,2.800546,0,0.0006892498931847
1778782975.900586,55084624,1,0.000683537684381,0.0007512582815252,0.0009483118774369,0.001132130739279,-0.0009668067796155,-9.81611156463623,0,0,28.248313903808597,1,1,760,800,2.800546,0,0.0009483118774369
1778782975.94057,55124608,0,0.0007353244000114,0.0007533914176747,0.0008532946230843,-0.0010685094166547,-0.0014247022336348,-9.817398071289062,0,0,28.250545501708984,1,1,1000,1000,2.84053,0,0.0008532946230843
1778782975.94057,55124608,1,0.0008574410458095,0.0007349798106588,0.0006661632214672,-0.0006853964296169,-0.0030714848544448,-9.81692886352539,0,0,28.250545501708984,1,1,760,800,2.84053,0,0.0006661632214672
1778782975.980554,55164592,0,0.0007680627750232,0.0007665753364562,0.0007757421699352,-0.0012223270023241,-0.0011915895156562,-9.81704330444336,0,0,28.25278091430664,1,1,1000,1000,2.880514,0,0.0007757421699352
1778782975.980554,55164592,1,0.0004402235208544,0.0008872196776792,0.0007917627226561,0.0002020408574026,0.0009919379372149,-9.817506790161133,0,0,28.25278091430664,1,1,760,800,2.880514,0,0.0007917627226561
1778782976.020538,55204576,0,0.0008070565527305,0.0007393265841528,0.0007198406383395,-0.0014508586609736,-0.0003558754106052,-9.817161560058594,0,0,28.25501251220703,1,1,1000,1000,2.920498,0,0.0007198406383395
1778782976.020538,55204576,1,0.0007149301236495,0.0006033688550814,0.0012524686753749,-0.0004229747573845,-0.0013702693395316,-9.816826820373535,0,0,28.25501251220703,1,1,760,800,2.920498,0,0.0012524686753749
1778782976.060522,55244560,0,0.0008186508785001,0.0007916488684713,0.0007235022494569,-0.0012527416693046,-0.0011832521995529,-9.816351890563965,0,0,28.257244110107425,1,1,1000,1000,2.960482,0,0.0007235022494569
1778782976.060522,55244560,1,0.000694696442224,0.0007600182434543,0.000910919799935,-0.0017503303242847,0.0003461654414422,-9.818918228149414,0,0,28.257244110107425,1,1,760,800,2.960482,0,0.000910919799935
1778782976.100506,55284544,0,0.000728813232854,0.0007268303306773,0.0007806544890627,-0.0011284217471256,-0.0012036843691021,-9.817584037780762,0,0,28.259477615356445,1,1,1000,1000,3.000466,0,0.0007806544890627
1778782976.100506,55284544,1,0.001016093767248,0.0008500721305608,0.0006874654791317,-0.0017207950586453,-0.0018676946638152,-9.81685733795166,0,0,28.259477615356445,1,1,760,800,3.000466,0,0.0006874654791317
1778782976.14049,55324528,0,0.0008531535277143,0.0007278486154973,0.000821536174044,-0.0018010276835411,-0.0012751343892887,-9.817193031311035,0,0,28.26170921325684,1,1,1000,1000,3.04045,0,0.000821536174044
1778782976.14049,55324528,1,0.0006188974366523,0.0008078443352133,0.0006746960571035,-0.0003361286362633,-0.0005264222854748,-9.81771183013916,0,0,28.26170921325684,1,1,760,800,3.04045,0,0.0006746960571035
1778782976.180474,55364512,0,0.0007554652984254,0.0007030988344922,0.0008201882010325,-0.001021462958306,-0.0012745035346597,-9.81831169128418,0,0,28.263940811157227,1,1,1000,1000,3.080434,0,0.0008201882010325
1778782976.180474,55364512,1,0.0006415760144591,0.0008948574541136,0.00072294176789,-0.0006831286591477,-0.0009542850311845,-9.819029808044434,0,0,28.263940811157227,1,1,760,800,3.080434,0,0.00072294176789
1778782976.220458,55404496,0,0.0008334683370776,0.0008558332920074,0.0008601049194112,-0.0010850002290681,-0.0013679083203896,-9.81757354736328,0,0,28.266172409057617,1,1,1000,1000,3.120418,0,0.0008601049194112
1778782976.220458,55404496,1,0.000849595235195,0.0008210478699766,0.0007889490807428,-0.0019029274117201,-0.0018040461000055,-9.819618225097656,0,0,28.266172409057617,1,1,760,800,3.120418,0,0.0007889490807428
1778782976.260442,55444480,0,0.0007494568708352,0.0006725456332787,0.0008155222749337,-0.0008892220794223,-0.0018388335593044,-9.818133354187012,0,0,28.268404006958008,1,1,1000,1000,3.160402,0,0.0008155222749337
1778782976.260442,55444480,1,0.0006377462996169,0.0009564444771967,0.0008946176385506,-0.0014226110652089,-0.0007379101589322,-9.81686782836914,0,0,28.268404006958008,1,1,760,800,3.160402,0,0.0008946176385506
1778782976.300426,55484464,0,0.0008557143737562,0.0008130997885018,0.0007579267839901,-0.0002078146062558,-0.0004191882035229,-9.817020416259766,0,0,28.27063369750977,1,1,1000,1000,3.200386,0,0.0007579267839901
1778782976.300426,55484464,1,0.0006682687089778,0.0006821769056841,0.0010423100320622,-0.0009992005070671,0.0005109884077683,-9.817840576171877,0,0,28.27063369750977,1,1,760,800,3.200386,0,0.0010423100320622
1778782976.34041,55524448,0,0.0007614463102072,0.0007481834036298,0.0008077407255768,-0.0016204569255933,-0.0017745564691722,-9.816506385803224,0,0,28.27286529541016,1,1,1000,1000,3.24037,0,0.0008077407255768
1778782976.34041,55524448,1,0.0006131249829195,0.0008230023668147,0.0009821063140407,-0.0006799719412811,0.0012055062688887,-9.817479133605955,0,0,28.27286529541016,1,1,760,800,3.24037,0,0.0009821063140407
1778782976.380394,55564432,0,0.0008167593041434,0.0007640274707227,0.0008133240626193,-0.0004203774151392,-0.0003518137673381,-9.817278861999512,0,0,28.275094985961918,1,1,1000,1000,3.280354,0,0.0008133240626193
1778782976.380394,55564432,1,0.0008200388983823,0.0005745427333749,0.0007986372802406,-0.0003323841374367,-0.0010494370944797,-9.818464279174805,0,0,28.275094985961918,1,1,760,800,3.280354,0,0.0007986372802406
1778782976.420378,55604416,0,0.000830172561109,0.000752390245907,0.0007663160795345,-0.0009670314611867,-0.0006883473834022,-9.816716194152832,0,0,28.277324676513672,1,1,1000,1000,3.320338,0,0.0007663160795345
1778782976.420378,55604416,1,0.0007348068756982,0.0005489219911396,0.000603453896474,-0.0015339023666456,-0.0013170248130336,-9.815590858459473,0,0,28.277324676513672,1,1,760,800,3.320338,0,0.000603453896474
1778782976.460362,55644400,0,0.0008408575667999,0.0007362935575656,0.0007771480595692,-0.0006881947047077,-6.638457125518471e-05,-9.817255973815918,0,0,28.27955436706543,1,1,1000,1000,3.360322,0,0.0007771480595692
1778782976.460362,55644400,1,0.0008001127280294,0.0007034486043266,0.000719912815839,-0.0036212445702403,-0.0003167740651406,-9.815861701965332,0,0,28.27955436706543,1,1,760,800,3.360322,0,0.000719912815839
1778782976.500346,55684384,0,0.0008316278690472,0.000820112763904,0.0007777594728395,-0.0013630371540784,-0.0007908948464319,-9.818620681762695,0,0,28.281784057617188,1,1,1000,1000,3.400306,0,0.0007777594728395
1778782976.500346,55684384,1,0.0009197146864607,0.0007097867783159,0.0006765504367649,-0.0040473169647157,-0.0007596029900014,-9.817474365234377,0,0,28.281784057617188,1,1,760,800,3.400306,0,0.0006765504367649
1778782976.54033,55724368,0,0.0007033492438495,0.0007402357296086,0.0007559272344224,-0.001134020043537,-0.0009791671764105,-9.816900253295898,0,0,28.284011840820312,1,1,1000,1000,3.44029,0,0.0007559272344224
1778782976.54033,55724368,1,0.0007559140212833,0.0005467747687362,0.001013959525153,-0.0003780197876039,-0.0011453565675765,-9.817718505859377,0,0,28.284011840820312,1,1,760,800,3.44029,0,0.001013959525153
1778782976.580314,55764352,0,0.0007782458560541,0.0007646807353012,0.0007248091278597,-0.0010546484263613,9.816682722885162e-05,-9.818553924560549,0,0,28.28624153137207,1,1,1000,1000,3.480274,0,0.0007248091278597
1778782976.580314,55764352,1,0.0004674095544032,0.0008271116530522,0.0008267365046776,-0.0007143710972741,-0.0002382278034929,-9.817438125610352,0,0,28.28624153137207,1,1,760,800,3.480274,0,0.0008267365046776
1778782976.620298,55804336,0,0.0008640549494884,0.0007204811554402,0.0008168189087882,-0.0005189914954826,-0.0007203215500339,-9.817261695861816,0,0,28.288469314575195,1,1,1000,1000,3.520258,0,0.0008168189087882
1778782976.620298,55804336,1,0.0007898005424067,0.0009759542299434,0.0008620892185717,-0.0015393092762678,-0.0006501243333332,-9.818567276000977,0,0,28.288469314575195,1,1,760,800,3.520258,0,0.0008620892185717
1778782976.660282,55844320,0,0.0007908078841865,0.0008383811218664,0.0007900767377577,-0.0001631403720239,-0.0013067828258499,-9.817397117614746,0,0,28.29069709777832,1,1,1000,1000,3.560242,0,0.0007900767377577
1778782976.660282,55844320,1,0.0005452924524433,0.0009242152445949,0.0009105883073061,-0.0028714188374578,-0.0008077670354396,-9.819730758666992,0,0,28.29069709777832,1,1,760,800,3.560242,0,0.0009105883073061
1778782976.700266,55884304,0,0.0007866399828344,0.0008805120596662,0.0007482297951355,-0.0002562698500696,-0.0008214158006012,-9.817089080810549,0,0,28.292924880981445,1,1,1000,1000,3.600226,0,0.0007482297951355
1778782976.700266,55884304,1,0.0004516046319622,0.0007525771507062,0.0007811383111402,0.0007205606088973,-0.0010634530335664,-9.817254066467283,0,0,28.292924880981445,1,1,760,800,3.600226,0,0.0007811383111402
1778782976.74025,55924288,0,0.0008002697722986,0.0007876998279243,0.0008129109046421,-0.001046291552484,-0.001255111536011,-9.81760311126709,0,0,28.29515266418457,1,1,1000,1000,3.64021,0,0.0008129109046421
1778782976.74025,55924288,1,0.0007783034816384,0.0005998880369588,0.0005510097835212,0.0006539380992762,7.481287320842966e-05,-9.817501068115234,0,0,28.29515266418457,1,1,760,800,3.64021,0,0.0005510097835212
1778782976.780234,55964272,0,0.000810200930573,0.0007299571880139,0.0007504165405407,-0.0006975656142458,-0.0003477835271041,-9.817367553710938,0,0,28.29738044738769,1,1,1000,1000,3.680194,0,0.0007504165405407
1778782976.780234,55964272,1,0.0009015051182359,0.000812855316326,0.0007044956437312,0.0003494419797789,-0.0023492574691772,-9.817405700683594,0,0,28.29738044738769,1,1,760,800,3.680194,0,0.0007044956437312
1778782976.820218,56004256,0,0.0007608797168359,0.0008104942389763,0.0007463631918653,-0.0014975832309573,-0.0013909402769058,-9.817874908447266,0,0,28.299606323242188,1,1,1000,1000,3.720178,0,0.0007463631918653
1778782976.820218,56004256,1,0.0010641202097758,0.0009603957878425,0.000819447916001,-0.0024543446488678,0.000420436321292,-9.817586898803713,0,0,28.299606323242188,1,1,760,800,3.720178,0,0.000819447916001
1778782976.860202,56044240,0,0.0007554809562861,0.0007498688064515,0.0008105122833512,-0.0020620911382138,-0.0014708150411024,-9.818971633911133,0,0,28.30183219909668,1,1,1000,1000,3.760162,0,0.0008105122833512
1778782976.860202,56044240,1,0.0007499167113564,0.0006432422087527,0.0005829072906635,0.0004340076702646,0.0001714063982944,-9.818034172058104,0,0,28.30183219909668,1,1,760,800,3.760162,0,0.0005829072906635
1778782976.900186,56084224,0,0.0007413219427689,0.0007948788697831,0.0007770959637127,-0.0013412658590823,-0.0009553649579174,-9.817607879638672,0,0,28.30400276184082,1,1,1000,1000,3.800146,0,0.0007770959637127
1778782976.900186,56084224,1,0.0007015356677584,0.0008519728435203,0.0007976407650858,-0.0031224843114614,-0.0007259337580762,-9.817693710327148,0,0,28.30400276184082,1,1,760,800,3.800146,0,0.0007976407650858
1778782976.94017,56124208,0,0.0007917968323454,0.0007580260862596,0.0007531836745329,-0.0001857580064097,-0.0016244291327893,-9.816767692565918,0,0,28.306230545043945,1,1,1000,1000,3.84013,0,0.0007531836745329
1778782976.94017,56124208,1,0.0009464696631766,0.0006676776101812,0.0009333885391242,0.0001860935590229,0.0005261257756501,-9.817922592163086,0,0,28.306230545043945,1,1,760,800,3.84013,0,0.0009333885391242
1778782976.980154,56164192,0,0.0007438471075147,0.0007684073643758,0.0008006166899576,-0.0017303224885836,-0.0003373149083927,-9.817138671875,0,0,28.30845642089844,1,1,1000,1000,3.880114,0,0.0008006166899576
1778782976.980154,56164192,1,0.0009266765555366,0.0007436837768182,0.00063715595752,-0.0012437154073268,-0.0044083697721362,-9.81804370880127,0,0,28.30845642089844,1,1,760,800,3.880114,0,0.00063715595752
1778782977.020138,56204176,0,0.0007167892181314,0.0007163002737797,0.0007421933114528,-0.0008369241841137,-0.0016622982220724,-9.817346572875977,0,0,28.310680389404297,1,1,1000,1000,3.920098,0,0.0007421933114528
1778782977.020138,56204176,1,0.0007657759124413,0.0004580270906444,0.0006889840587973,-0.0016800703015178,-0.0001294112153118,-9.81804370880127,0,0,28.310680389404297,1,1,760,800,3.920098,0,0.0006889840587973
1778782977.060122,56244160,0,0.0008144914754666,0.0007774070836603,0.0008405445259995,-0.0008452201727777,-0.0003429496719036,-9.816568374633787,0,0,28.31290626525879,1,1,1000,1000,3.960082,0,0.0008405445259995
1778782977.060122,56244160,1,0.0007039000629447,0.0010124683612957,0.0006327036535367,-0.0010519762290641,-0.0009685470722615,-9.815590858459473,0,0,28.31290626525879,1,1,760,800,3.960082,0,0.0006327036535367
1778782977.100106,56284144,0,0.0007843197672627,0.0008789062849245,0.0007788783404976,-0.0019397314172238,-0.0024317251518368,-9.81723690032959,0,0,28.31513023376465,1,1,1000,1000,4.000066,0,0.0007788783404976
1778782977.100106,56284144,1,0.0007799430168233,0.0009493980905972,0.0007671454222872,-7.526850822614506e-05,-0.0005431248573586,-9.82016372680664,0,0,28.31513023376465,1,1,760,800,4.000066,0,0.0007671454222872
1778782977.14009,56324128,0,0.000719478179235,0.0008033378981053,0.0008026582654565,-0.0013632550835609,-0.0009374765795655,-9.817899703979492,0,0,28.317354202270508,1,1,1000,1000,4.04005,0,0.0008026582654565
1778782977.14009,56324128,1,0.0009323899867013,0.0007746084593236,0.0008178191492334,0.0002163010358344,-0.0015522047178819,-9.814969062805176,0,0,28.317354202270508,1,1,760,800,4.04005,0,0.0008178191492334
1778782977.180074,56364112,0,0.0009137799497693,0.0007892186986282,0.0007943289238028,-0.0017511274199932,-0.0002045240689767,-9.818324089050291,0,0,28.319580078125,1,1,1000,1000,4.080034,0,0.0007943289238028
1778782977.180074,56364112,1,0.0007564775878563,0.0009014466777443,0.0008713058778084,5.2823561418335885e-05,0.0005745277157984,-9.818304061889648,0,0,28.319580078125,1,1,760,800,4.080034,0,0.0008713058778084
1778782977.220058,56404096,0,0.0007581734098494,0.0008406370761804,0.0008388878777623,-0.0016299559501931,-0.0015267779817804,-9.816089630126951,0,0,28.32180404663086,1,1,1000,1000,4.120018,0,0.0008388878777623
1778782977.220058,56404096,1,0.0006427323096431,0.000691479537636,0.0007158747757785,-2.705293445615098e-05,-0.0013684061123058,-9.817313194274902,0,0,28.32180404663086,1,1,760,800,4.120018,0,0.0007158747757785
1778782977.260042,56444080,0,0.0007959614158608,0.0007441913476213,0.0007573360926471,-0.0006007355405017,-0.0016193019691854,-9.818364143371582,0,0,28.32402801513672,1,1,1000,1000,4.160002,0,0.0007573360926471
1778782977.260042,56444080,1,0.0008043545531108,0.0008352154982276,0.0006850575446151,0.0008102181600406,-0.0011490094475448,-9.814501762390137,0,0,28.32402801513672,1,1,760,800,4.160002,0,0.0006850575446151
1778782977.300026,56484064,0,0.0007398594752885,0.000741419615224,0.0008428898290731,-0.0010296392720192,-0.0014011570019647,-9.816328048706056,0,0,28.326305389404297,1,1,1000,1000,4.199986,0,0.0008428898290731
1778782977.300026,56484064,1,0.0008482223493047,0.0010015993611887,0.0007841837359592,-0.0001118348300224,-0.0021893102675676,-9.816789627075195,0,0,28.326250076293945,1,1,760,800,4.199986,0,0.0007841837359592
1778782977.34001,56524048,0,0.0008670598035678,0.000887801288627,0.0007576032658107,-0.0020312394481152,-0.0002025827707257,-9.816675186157228,0,0,28.32852935791016,1,1,1000,1000,4.23997,0,0.0007576032658107
1778782977.34001,56524048,1,0.0006573493592441,0.0008688035886734,0.0010152847971767,-0.0009079614537768,-0.0016952676232904,-9.81800365447998,0,0,28.328474044799805,1,1,760,800,4.23997,0,0.0010152847971767
1778782977.379994,56564032,0,0.0007640362600795,0.0008044736459851,0.0008464303100481,-0.0007954173488542,-0.0006565143121406,-9.817339897155762,0,0,28.330751419067383,1,1,1000,1000,4.279954,0,0.0008464303100481
1778782977.379994,56564032,1,0.0006916757556609,0.0008373889140784,0.000799352012109,2.7167181542608887e-05,-0.0006245981203392,-9.81528663635254,0,0,28.33069610595703,1,1,760,800,4.279954,0,0.000799352012109
1778782977.4208112,56604849,0,0.0008480669930577,0.0008174524991773,0.0007999496883712,-0.0008594012469984,-0.0004335188132245,-9.817493438720703,0,0,28.33297348022461,1,1,1000,1000,4.320771,0,0.0007999496883712
1778782977.4208112,56604849,1,0.0007972108433023,0.000722732336726,0.000887329922989,-0.0007932444568723,-0.0012897381093353,-9.81903076171875,0,0,28.33297348022461,1,1,760,800,4.320771,0,0.000887329922989
1778782977.4607952,56644833,0,0.0007797569269314,0.0008256341097876,0.0007980845402926,-0.0002321310166735,-0.0009486862691119,-9.816900253295898,0,0,28.33519744873047,1,1,1000,1000,4.360755,0,0.0007980845402926
1778782977.4607952,56644833,1,0.0007854636060073,0.0010024143848568,0.0007150273886509,-0.0003693219623528,-0.0018303000833839,-9.819570541381836,0,0,28.33519744873047,1,1,760,800,4.360755,0,0.0007150273886509
1778782977.5007792,56684817,0,0.0009056995622813,0.0008608035277575,0.0008037881343625,-0.000513297622092,-0.0008629753720015,-9.817706108093262,0,0,28.337417602539062,1,1,1000,1000,4.400739,0,0.0008037881343625
1778782977.5007792,56684817,1,0.0006282054819166,0.000790950609371,0.0007229255279526,-0.0028837043792009,-0.0022379660513252,-9.816645622253418,0,0,28.337417602539062,1,1,760,800,4.400739,0,0.0007229255279526
1778782977.5407631,56724801,0,0.0007687345496378,0.000837309344206,0.0007318654097616,-0.0002966867759823,-0.001586977392435,-9.817519187927246,0,0,28.33963966369629,1,1,1000,1000,4.440723,0,0.0007318654097616
1778782977.5407631,56724801,1,0.0010807841317728,0.0005910370964556,0.0007861862541176,0.0021004960872232,-0.0031869583763182,-9.8172607421875,0,0,28.33963966369629,1,1,760,800,4.440723,0,0.0007861862541176
1778782977.5807471,56764785,0,0.0007543558604083,0.0008209483348764,0.000820632383693,-0.0012562908232212,-0.0014613228850066,-9.81745147705078,0,0,28.34186172485352,1,1,1000,1000,4.480707,0,0.000820632383693
1778782977.5807471,56764785,1,0.0008164542960003,0.0008395982440561,0.0007963169482536,-0.0014395115431398,-0.0027976429555565,-9.817481994628906,0,0,28.34186172485352,1,1,760,800,4.480707,0,0.0007963169482536
1778782977.620731,56804769,0,0.0007251902716234,0.0008074970683082,0.0007534644100815,-0.0006918033468537,0.0002973742666654,-9.816805839538574,0,0,28.34408187866211,1,1,1000,1000,4.520691,0,0.0007534644100815
1778782977.620731,56804769,1,0.0009683724492788,0.0006598582840524,0.0009405275341123,-0.0035427720285952,-0.0003976334119215,-9.816566467285156,0,0,28.34408187866211,1,1,760,800,4.520691,0,0.0009405275341123
1778782977.660715,56844753,0,0.0007663307478651,0.0007320535369217,0.0008319164044223,-0.0010806338395923,-0.0005838185315951,-9.81706428527832,0,0,28.346302032470703,1,1,1000,1000,4.560675,0,0.0008319164044223
1778782977.660715,56844753,1,0.0008035185164771,0.0006678916979581,0.0007415294530801,-0.0013574524782598,0.0017642441671341,-9.817215919494627,0,0,28.346302032470703,1,1,760,800,4.560675,0,0.0007415294530801
1778782977.700699,56884737,0,0.000791369122453,0.0008336282335221,0.0008239825256168,-0.0004514214524533,-0.001095948042348,-9.817697525024414,0,0,28.348522186279297,1,1,1000,1000,4.600659,0,0.0008239825256168
1778782977.700699,56884737,1,0.0005826319102197,0.0006698621436953,0.0006287759752012,3.964159986935556e-07,-6.117113662185147e-05,-9.816781997680664,0,0,28.348522186279297,1,1,760,800,4.600659,0,0.0006287759752012
1778782977.740683,56924721,0,0.0007581578101962,0.000823680718895,0.0008638384169898,-0.0005796929472126,-0.0005431786412373,-9.818047523498535,0,0,28.35074234008789,1,1,1000,1000,4.640643,0,0.0008638384169898
1778782977.740683,56924721,1,0.0009492937242612,0.0008360807551071,0.0007765076588839,0.0003801376733463,0.0003278851218055,-9.816448211669922,0,0,28.35074234008789,1,1,760,800,4.640643,0,0.0007765076588839
1778782977.780667,56964705,0,0.0008718922617845,0.0008559947600588,0.0007464655791409,-0.0009094114648178,-0.0005448110168799,-9.817474365234377,0,0,28.352962493896484,1,1,1000,1000,4.680627,0,0.0007464655791409
1778782977.780667,56964705,1,0.0008336780592799,0.001153573510237,0.0010019657202064,0.000197456087335,-0.0012393215438351,-9.816181182861328,0,0,28.352962493896484,1,1,760,800,4.680627,0,0.0010019657202064
1778782977.820651,57004689,0,0.0008211444946937,0.0007108870195224,0.0007783831097185,-0.0008139301789924,-0.0004028828989248,-9.816882133483888,0,0,28.35518264770508,1,1,1000,1000,4.720611,0,0.0007783831097185
1778782977.820651,57004689,1,0.0007391715771518,0.0009640181087888,0.0009352784836664,-0.0021644837688654,-0.0008018632652238,-9.81610107421875,0,0,28.35518264770508,1,1,760,800,4.720611,0,0.0009352784836664
1778782977.860635,57044673,0,0.0008845627307891,0.0008813906461,0.000765799137298,-0.0004246631579007,-0.001072374288924,-9.816571235656738,0,0,28.35740089416504,1,1,1000,1000,4.760595,0,0.000765799137298
1778782977.860635,57044673,1,0.0007220595143735,0.0008554670494049,0.0008214808185584,-0.001587348873727,-0.0014883603435009,-9.81795597076416,0,0,28.35740089416504,1,1,760,800,4.760595,0,0.0008214808185584
1778782977.900619,57084657,0,0.0007433135178871,0.0008074292563833,0.0008398317731916,-0.0017578830011188,-0.000277556333458,-9.818252563476562,0,0,28.359621047973636,1,1,1000,1000,4.800579,0,0.0008398317731916
1778782977.900619,57084657,1,0.0005845966516062,0.0005900260293856,0.0007096267072483,-0.0001691552606644,0.0013058268232271,-9.81472396850586,0,0,28.359621047973636,1,1,760,800,4.800579,0,0.0007096267072483
1778782977.940603,57124641,0,0.0007938359631225,0.0008418454672209,0.0008219940355047,-0.0005812923191115,-0.0012925005285069,-9.817121505737305,0,0,28.361839294433597,1,1,1000,1000,4.840563,0,0.0008219940355047
1778782977.940603,57124641,1,0.0009917716961354,0.0010379457380622,0.0007851923583075,-0.000424566300353,-0.0033399432431906,-9.818126678466797,0,0,28.361839294433597,1,1,760,800,4.840563,0,0.0007851923583075
1778782977.980587,57164625,0,0.0008136582328006,0.000805810035672,0.0008276382577605,-0.0013500701170414,-0.0013649670872837,-9.817926406860352,0,0,28.364057540893555,1,1,1000,1000,4.880547,0,0.0008276382577605
1778782977.980587,57164625,1,0.0005095080123282,0.0008549533085897,0.000758837792091,-0.0025043345522135,-0.0012891477672383,-9.816882133483888,0,0,28.364057540893555,1,1,760,800,4.880547,0,0.000758837792091
1778782978.0205708,57204609,0,0.0007542805396951,0.0008012929465621,0.000740748248063,0.000147189508425,-0.0008864606497809,-9.818007469177246,0,0,28.36627578735352,1,1,1000,1000,4.920531,0,0.000740748248063
1778782978.0205708,57204609,1,0.0008520190604031,0.0006631190772168,0.0008793653687462,-0.0017720886971801,-0.0021601389162242,-9.818574905395508,0,0,28.36627578735352,1,1,760,800,4.920531,0,0.0008793653687462
1778782978.0605547,57244593,0,0.0008132992079481,0.0007524864049628,0.0008661554893478,-0.0010636651422828,-0.0016100038774311,-9.817899703979492,0,0,28.368492126464844,1,1,1000,1000,4.960515,0,0.0008661554893478
1778782978.0605547,57244593,1,0.0008900030516088,0.0008041699184104,0.0007200631080195,-0.003287048311904,0.0005847978172823,-9.818666458129885,0,0,28.368492126464844,1,1,760,800,4.960515,0,0.0007200631080195
1778782978.1005387,57284577,0,0.0008333208970725,0.0008139258134178,0.0007500390638597,-0.0015782923437654,-0.0003143477370031,-9.817581176757812,0,0,28.370710372924805,1,1,1000,1000,5.000499,0,0.0007500390638597
1778782978.1005387,57284577,1,0.0007113321917131,0.0008986046887002,0.0007325152400881,-0.0016056728782132,-0.0013725637691095,-9.816444396972656,0,0,28.370710372924805,1,1,760,800,5.000499,0,0.0007325152400881
1778782978.1405232,57324561,0,0.0007452314021065,0.0008415508782491,0.0007661525160074,-0.0016915604937821,-0.0003111983533017,-9.817419052124023,0,0,28.372926712036133,1,1,1000,1000,5.040483,0,0.0007661525160074
1778782978.1405232,57324561,1,0.0007797477883286,0.0008292224374599,0.0005291296984069,-0.0018453847151249,-0.000924946158193,-9.817914962768556,0,0,28.372926712036133,1,1,760,800,5.040483,0,0.0005291296984069
1778782978.1805072,57364545,0,0.0007423539645969,0.0007952427840791,0.0007693627849221,-0.0003809157060459,-0.0003125671355519,-9.817499160766602,0,0,28.375144958496094,1,1,1000,1000,5.080467,0,0.0007693627849221
1778782978.1805072,57364545,1,0.000726610305719,0.0008960309205576,0.0009523793705739,-0.0003806821478065,-0.0004619968531187,-9.817655563354492,0,0,28.375144958496094,1,1,760,800,5.080467,0,0.0009523793705739
1778782978.2204912,57404529,0,0.0008222156320698,0.0007974471664056,0.0008418225916102,-0.0008187359781004,-0.0007001321646384,-9.817548751831056,0,0,28.37735939025879,1,1,1000,1000,5.120451,0,0.0008418225916102
1778782978.2204912,57404529,1,0.0007502336520701,0.0009748082375153,0.0006380624254234,-0.0008472198387607,0.0007125058909878,-9.81966781616211,0,0,28.37735939025879,1,1,760,800,5.120451,0,0.0006380624254234
1778782978.2604752,57444513,0,0.0007961720111779,0.0007718589622527,0.0008279613684862,-0.0011153769446536,-0.0012492258101701,-9.818615913391112,0,0,28.37957572937012,1,1,1000,1000,5.160435,0,0.0008279613684862
1778782978.2604752,57444513,1,0.0008597640553489,0.0010409128153696,0.0008685915963724,-0.0008603325113654,-0.0053720097057521,-9.817562103271484,0,0,28.37957572937012,1,1,760,800,5.160435,0,0.0008685915963724
1778782978.3004591,57484497,0,0.0007766577764414,0.0007577104261144,0.0008047269657254,-0.0014067299198359,8.499541763740126e-06,-9.817636489868164,0,0,28.381792068481445,1,1,1000,1000,5.200419,0,0.0008047269657254
1778782978.3004591,57484497,1,0.0006204691017046,0.0008576420950703,0.000978595460765,0.00125913543161,-0.0013913734583184,-9.817533493041992,0,0,28.381792068481445,1,1,760,800,5.200419,0,0.000978595460765
1778782978.3404431,57524481,0,0.0008562898146919,0.0008439580560661,0.0008858364308252,-0.0007628706516698,-0.0010640299879014,-9.818145751953123,0,0,28.384008407592773,1,1,1000,1000,5.240403,0,0.0008858364308252
1778782978.3404431,57524481,1,0.0007189311436377,0.0007663971045985,0.0008405526168644,-0.0021780761890113,-0.0035651482176035,-9.818005561828612,0,0,28.384008407592773,1,1,760,800,5.240403,0,0.0008405526168644
1778782978.3804271,57564465,0,0.0007661372656002,0.0008375617908313,0.0007784415502101,-0.0010300690773874,-0.001444241264835,-9.817066192626951,0,0,28.38622283935547,1,1,1000,1000,5.280387,0,0.0007784415502101
1778782978.3804271,57564465,1,0.0006266417913138,0.0007419053581543,0.0007781781605444,-0.0025615016929805,-0.0013322612503543,-9.818170547485352,0,0,28.38622283935547,1,1,760,800,5.280387,0,0.0007781781605444
1778782978.420411,57604449,0,0.0008010593592189,0.0008555392269045,0.0007849817629903,-0.0012264935066923,-0.0018635090673342,-9.817514419555664,0,0,28.3884391784668,1,1,1000,1000,5.320371,0,0.0007849817629903
1778782978.420411,57604449,1,0.0009776863735169,0.0007616991642862,0.0010573867475613,-0.0017171807121485,-0.0011605848558247,-9.816730499267578,0,0,28.3884391784668,1,1,760,800,5.320371,0,0.0010573867475613
1778782978.460395,57644433,0,0.000850438082125,0.0008195786504074,0.000796384178102,-0.0008576426771469,-0.0015231776051223,-9.81675624847412,0,0,28.39065361022949,1,1,1000,1000,5.360355,0,0.000796384178102
1778782978.460395,57644433,1,0.0004721329023595,0.0006668316200375,0.0007159049273468,-0.0007399120368063,0.0002598454884719,-9.816079139709473,0,0,28.39065361022949,1,1,760,800,5.360355,0,0.0007159049273468
1778782978.500379,57684417,0,0.0008551250793971,0.0007764234323985,0.0008175947004929,1.366382093692664e-05,-0.0020158500410616,-9.818472862243652,0,0,28.392868041992188,1,1,1000,1000,5.400339,0,0.0008175947004929
1778782978.500379,57684417,1,0.0008174382383003,0.0008813810418359,0.0006712982431054,0.0018706497503444,0.0002224831841886,-9.819122314453123,0,0,28.392868041992188,1,1,760,800,5.400339,0,0.0006712982431054
1778782978.540363,57724401,0,0.0007298067212104,0.000831532117445,0.0007426678203046,-0.0006069566006772,-0.001520482241176,-9.816850662231444,0,0,28.395082473754883,1,1,1000,1000,5.440323,0,0.0007426678203046
1778782978.540363,57724401,1,0.0007952463929541,0.0006927865906618,0.0006611583521589,0.0014495734358206,-0.0014964193105697,-9.81635856628418,0,0,28.395082473754883,1,1,760,800,5.440323,0,0.0006611583521589
1778782978.580347,57764385,0,0.0008552751969546,0.0008675177814438,0.0007793436525389,-0.0014223026810213,-0.0016267246101051,-9.817030906677246,0,0,28.397294998168945,1,1,1000,1000,5.480307,0,0.0007793436525389
1778782978.580347,57764385,1,0.0009850350907072,0.0008431687601841,0.0007515593315474,-0.0021901798900216,-0.0028422933537513,-9.81741714477539,0,0,28.397294998168945,1,1,760,800,5.480307,0,0.0007515593315474
1778782978.620331,57804369,0,0.0007771849632263,0.0007466716924682,0.000830395030789,-0.0004628565511666,-0.0007817898876965,-9.816896438598633,0,0,28.39950942993164,1,1,1000,1000,5.520291,0,0.000830395030789
1778782978.620331,57804369,1,0.0006592641002498,0.0008961426210589,0.00080918247113,-0.0010811740066856,0.0006842953152954,-9.818011283874512,0,0,28.39950942993164,1,1,760,800,5.520291,0,0.00080918247113
1778782978.660315,57844353,0,0.0008133906521834,0.0008556804968975,0.0007631658809259,-0.0013112956658005,-0.001576542854309,-9.817421913146973,0,0,28.401721954345703,1,1,1000,1000,5.560275,0,0.0007631658809259
1778782978.660315,57844353,1,0.0008542442228645,0.0010980643564835,0.0007598146330565,-0.0026118529494851,5.044890713179484e-06,-9.818662643432615,0,0,28.401721954345703,1,1,760,800,5.560275,0,0.0007598146330565
1778782978.700299,57884337,0,0.0007788548246026,0.0007989988080225,0.0007845801883377,-0.0006982488557696,-0.0007013558060862,-9.817498207092283,0,0,28.40393447875977,1,1,1000,1000,5.600259,0,0.0007845801883377
1778782978.700299,57884337,1,0.0005386167904362,0.0010411413386464,0.0009102853946387,-0.0017555106896907,0.0012109541567042,-9.81586456298828,0,0,28.40393447875977,1,1,760,800,5.600259,0,0.0009102853946387
1778782978.740283,57924321,0,0.0007828082889318,0.0008042227709665,0.0008136334363371,-0.0008310721023008,-0.0008338698535226,-9.817774772644045,0,0,28.406147003173828,1,1,1000,1000,5.640243,0,0.0008136334363371
1778782978.740283,57924321,1,0.0007319895667023,0.0005823486717417,0.0008987519540823,0.0002087054599542,0.0003481385065242,-9.814254760742188,0,0,28.406147003173828,1,1,760,800,5.640243,0,0.0008987519540823
1778782978.780267,57964305,0,0.0007955130422487,0.0008342229411937,0.000843328773044,-0.0018604381475597,-0.0010721299331635,-9.818408012390137,0,0,28.40835952758789,1,1,1000,1000,5.680227,0,0.000843328773044
1778782978.780267,57964305,1,0.0010010787518694,0.0007524928078055,0.0006927418289706,-0.0021671252325177,-0.0012039700523018,-9.8158540725708,0,0,28.40835952758789,1,1,760,800,5.680227,0,0.0006927418289706
1778782978.8202507,58004289,0,0.0007403877680189,0.0007868531392887,0.0008633183315396,-0.0013343661557883,-0.0021535214036703,-9.818015098571776,0,0,28.410572052001957,1,1,1000,1000,5.720211,0,0.0008633183315396
1778782978.8202507,58004289,1,0.0006975794094614,0.0007096360204741,0.0007520203362219,-0.0016266298480331,-0.0013416574802249,-9.816410064697266,0,0,28.410572052001957,1,1,760,800,5.720211,0,0.0007520203362219
1778782978.8602347,58044273,0,0.00087305722991,0.000857834063936,0.0008228789665736,-0.0012322660768404,-0.000591927091591,-9.817256927490234,0,0,28.412784576416016,1,1,1000,1000,5.760195,0,0.0008228789665736
1778782978.8602347,58044273,1,0.0007155432249419,0.0007152541656978,0.0008491681655868,-0.0002966029569506,-0.0027257208712399,-9.815927505493164,0,0,28.412784576416016,1,1,760,800,5.760195,0,0.0008491681655868
1778782978.9002187,58084257,0,0.0008083194843493,0.0008556848042644,0.0008320398628711,-0.0002032154006883,-0.0014711504336446,-9.81727409362793,0,0,28.414995193481445,1,1,1000,1000,5.800179,0,0.0008320398628711
1778782978.9002187,58084257,1,0.0007978856447152,0.0007976882043294,0.0006795197259634,-0.0006873010424897,-0.0009549603564664,-9.820384979248049,0,0,28.414995193481445,1,1,760,800,5.800179,0,0.0006795197259634
1778782978.9402032,58124241,0,0.000847817165777,0.0007591093890368,0.0007728206692263,-0.00139243574813,-0.0009297071956098,-9.817476272583008,0,0,28.417207717895508,1,1,1000,1000,5.840163,0,0.0007728206692263
1778782978.9402032,58124241,1,0.0006487888749688,0.0008143373997882,0.0009291663300246,-9.81539415079169e-05,8.755675662541762e-05,-9.820561408996582,0,0,28.417207717895508,1,1,760,800,5.840163,0,0.0009291663300246
1778782978.9801872,58164225,0,0.0008617502171546,0.0007880633929744,0.0007840876933187,-0.0006857287371531,-0.0023472248576581,-9.817273139953612,0,0,28.419363021850582,1,1,1000,1000,5.880147,0,0.0007840876933187
1778782978.9801872,58164225,1,0.0007054744055494,0.0010919956257566,0.0007072379230521,-0.0002661618054844,-0.0013796254061162,-9.82009983062744,0,0,28.419363021850582,1,1,760,800,5.880147,0,0.0007072379230521
1778782979.0201712,58204209,0,0.0008034213096834,0.0008137981640174,0.0008773256558924,1.133818022935884e-05,-0.0013455885928124,-9.817022323608398,0,0,28.421571731567383,1,1,1000,1000,5.920131,0,0.0008773256558924
1778782979.0201712,58204209,1,0.000842162349727,0.000614782969933,0.0006729082087986,-0.0012256193440407,0.0007432372076436,-9.818063735961914,0,0,28.421571731567383,1,1,760,800,5.920131,0,0.0006729082087986
1778782979.0601552,58244193,0,0.0007970184669829,0.0008405997650697,0.0007930808351375,-0.0009415877284482,-0.0023300389293581,-9.818079948425291,0,0,28.423784255981445,1,1,1000,1000,5.960115,0,0.0007930808351375
1778782979.0601552,58244193,1,0.0009177355095744,0.0008915819926187,0.0009542540647089,-0.0006162711651995,0.0004244751762598,-9.817484855651855,0,0,28.423784255981445,1,1,760,800,5.960115,0,0.0009542540647089
1778782979.1001391,58284177,0,0.0009136835578829,0.00079091405496,0.0007725657196715,5.0189428293379024e-05,-0.0008429400040768,-9.818365097045898,0,0,28.425994873046875,1,1,1000,1000,6.000099,0,0.0007725657196715
1778782979.1001391,58284177,1,0.0008920052205212,0.0006906395428813,0.0005834965268149,0.0016670967452228,-0.0044299024157226,-9.820257186889648,0,0,28.425994873046875,1,1,760,800,6.000099,0,0.0005834965268149
1778782979.1401231,58324161,0,0.0008340504136867,0.0007599437376484,0.0008084242581389,-0.0010682456195354,-0.0006408613407984,-9.817594528198242,0,0,28.428203582763672,1,1,1000,1000,6.040083,0,0.0008084242581389
1778782979.1401231,58324161,1,0.0005751578719355,0.0007855789735913,0.000813816091977,-0.0011591094080358,-0.0028733457438647,-9.81715488433838,0,0,28.428203582763672,1,1,760,800,6.040083,0,0.000813816091977
1778782979.180107,58364145,0,0.0008525727898813,0.0008255058201029,0.0008148184278979,-0.0014555030502378,-0.0007354611298069,-9.817058563232422,0,0,28.43041229248047,1,1,1000,1000,6.080067,0,0.0008148184278979
1778782979.180107,58364145,1,0.0007550375303253,0.0008427755674347,0.0008063939167186,0.0008918314706534,-0.0024370532482862,-9.816435813903809,0,0,28.43041229248047,1,1,760,800,6.080067,0,0.0008063939167186
1778782979.220091,58404129,0,0.0008353437297046,0.0007871447014622,0.0008387474808841,-0.0005854271003045,-0.0013606302672997,-9.817813873291016,0,0,28.432621002197266,1,1,1000,1000,6.120051,0,0.0008387474808841
1778782979.220091,58404129,1,0.0008139571291394,0.000736448506359,0.0007309343200176,-0.004723890684545,-0.003704191185534,-9.817365646362305,0,0,28.432621002197266,1,1,760,800,6.120051,0,0.0007309343200176
1778782979.260075,58444113,0,0.0007597840158268,0.0007471588323824,0.000856683938764,-0.0008076716330833,-0.0005893518100492,-9.817092895507812,0,0,28.43483161926269,1,1,1000,1000,6.160035,0,0.000856683938764
1778782979.260075,58444113,1,0.0007919919444248,0.0007908376283012,0.0006839913548901,-0.0013857184676453,-0.0028684074059128,-9.820442199707031,0,0,28.43483161926269,1,1,760,800,6.160035,0,0.0006839913548901
1778782979.300059,58484097,0,0.0008583868620917,0.0007960674120113,0.0008649412193335,-0.0015444952296093,-0.0005028586601838,-9.818130493164062,0,0,28.43703842163086,1,1,1000,1000,6.200019,0,0.0008649412193335
1778782979.300059,58484097,1,0.0008213170222006,0.0008045068825595,0.0008891576435416,0.0001475639146519,-0.0003817749675363,-9.81901741027832,0,0,28.43703842163086,1,1,760,800,6.200019,0,0.0008891576435416
1778782979.340043,58524081,0,0.0008866859134286,0.000809705001302,0.0007446821546182,-0.0003610122948884,-0.0004995381459593,-9.817346572875977,0,0,28.439247131347656,1,1,1000,1000,6.240003,0,0.0007446821546182
1778782979.340043,58524081,1,0.0008637271821498,0.0007921067299321,0.0009067095234058,-6.579258297279012e-06,-0.002273291349411,-9.818675994873049,0,0,28.439247131347656,1,1,760,800,6.240003,0,0.0009067095234058
1778782979.380027,58564065,0,0.000885066925548,0.0007311260560527,0.0008070295443758,0.0001612335909157,-0.0018390165641903,-9.81773567199707,0,0,28.44150924682617,1,1,1000,1000,6.279987,0,0.0008070295443758
1778782979.380027,58564065,1,0.0011272320989519,0.0009758528904058,0.0008250611135736,-0.0034725968725979,-0.0031035654246807,-9.817590713500977,0,0,28.441455841064453,1,1,760,800,6.279987,0,0.0008250611135736
1778782979.420011,58604049,0,0.0008999973651953,0.0007237568497657,0.0008427986758761,-0.0002077665703836,-0.0009144319919869,-9.816853523254396,0,0,28.44371795654297,1,1,1000,1000,6.319971,0,0.0008427986758761
1778782979.420011,58604049,1,0.0005555868847295,0.0009178302716463,0.0008545311866328,-0.0011931571643799,0.0006436433177441,-9.81682014465332,0,0,28.443662643432617,1,1,760,800,6.319971,0,0.0008545311866328
1778782979.459995,58644033,0,0.0007923063240014,0.0007593955378979,0.0007955817272886,-0.0013301994185894,-2.3925451387185603e-05,-9.817508697509766,0,0,28.44592666625977,1,1,1000,1000,6.359955,0,0.0007955817272886
1778782979.459995,58644033,1,0.0007566356798633,0.0005503236316144,0.0008014705963432,0.0004602649714797,-0.002297289436683,-9.819053649902344,0,0,28.44587135314941,1,1,760,800,6.359955,0,0.0008014705963432
1778782979.500812,58684850,0,0.0007875657174736,0.0008121053688228,0.0007431627018377,-0.002386552747339,-0.0007163220434449,-9.817184448242188,0,0,28.448131561279297,1,1,1000,1000,6.400772,0,0.0007431627018377
1778782979.500812,58684850,1,0.0005340003990568,0.0004847369855269,0.0007135621272027,0.0002066635643132,-0.0018135677091777,-9.81705379486084,0,0,28.448131561279297,1,1,760,800,6.400772,0,0.0007135621272027
1778782979.540796,58724834,0,0.0008653876720927,0.0008356880862265,0.0008461390389129,-0.0008557351538911,-0.0012057127896696,-9.818402290344238,0,0,28.45033836364746,1,1,1000,1000,6.440756,0,0.0008461390389129
1778782979.540796,58724834,1,0.0008186046034097,0.0006265311967581,0.0007429920369759,-0.001942231087014,-0.0002875048085115,-9.81764793395996,0,0,28.45033836364746,1,1,760,800,6.440756,0,0.0007429920369759
1778782979.58078,58764818,0,0.0008128073532134,0.0008012021426111,0.0008547491743229,-0.0015583659987896,-0.0017025857232511,-9.816774368286133,0,0,28.452545166015625,1,1,1000,1000,6.48074,0,0.0008547491743229
1778782979.58078,58764818,1,0.0008701284532435,0.0009069832740351,0.0009316219948232,6.830217898823321e-05,-0.0016031323466449,-9.816276550292969,0,0,28.452545166015625,1,1,760,800,6.48074,0,0.0009316219948232
1778782979.620764,58804802,0,0.0007992241298779,0.0008463964913971,0.00086648092838,-0.0010638975072652,-0.0005400091176852,-9.817822456359863,0,0,28.45475196838379,1,1,1000,1000,6.520724,0,0.00086648092838
1778782979.620764,58804802,1,0.0007026366656646,0.0008661183528602,0.0009983094641938,-0.0021273596212267,-0.0021849852055311,-9.816397666931152,0,0,28.45475196838379,1,1,760,800,6.520724,0,0.0009983094641938
1778782979.660748,58844786,0,0.0007990432204678,0.0008300489862449,0.0007989631849341,-0.0008699902682565,-0.0006316708168014,-9.817533493041992,0,0,28.45695686340332,1,1,1000,1000,6.560708,0,0.0007989631849341
1778782979.660748,58844786,1,0.0008712003473192,0.000602321291808,0.0010081887012347,-0.0006153126596473,0.0001800823811208,-9.812094688415527,0,0,28.45695686340332,1,1,760,800,6.560708,0,0.0010081887012347
1778782979.700732,58884770,0,0.000821481924504,0.0008769681444391,0.0008704736828804,-0.0012413947843015,-7.3102222813759e-05,-9.8165283203125,0,0,28.459163665771484,1,1,1000,1000,6.600692,0,0.0008704736828804
1778782979.700732,58884770,1,0.0006359932012856,0.0008908432209864,0.0007103672833181,0.0003454494581092,-0.0010399845195934,-9.816730499267578,0,0,28.459163665771484,1,1,760,800,6.600692,0,0.0007103672833181
1778782979.740716,58924754,0,0.0008075788500718,0.0007809263188391,0.0008726721862331,-0.0010942532680928,-0.0007587770815007,-9.817317962646484,0,0,28.461368560791016,1,1,1000,1000,6.640676,0,0.0008726721862331
1778782979.740716,58924754,1,0.00104105041828,0.0007305584149435,0.0008377109188586,0.000653576105833,-0.001921433256939,-9.814179420471191,0,0,28.461368560791016,1,1,760,800,6.640676,0,0.0008377109188586
1778782979.7807,58964738,0,0.0008235315908677,0.0008642704342491,0.0008616457926109,-0.0008109383634291,-0.00035067362478,-9.81707000732422,0,0,28.463573455810547,1,1,1000,1000,6.68066,0,0.0008616457926109
1778782979.7807,58964738,1,0.0008931191405281,0.0008977793040685,0.0007813585689291,-0.0016178401419892,-0.001764754531905,-9.820236206054688,0,0,28.463573455810547,1,1,760,800,6.68066,0,0.0007813585689291
1778782979.820684,59004722,0,0.0008220775052905,0.0008044621208682,0.0008598141139373,-0.0004647007153835,-0.0004086648696102,-9.817440032958984,0,0,28.46577835083008,1,1,1000,1000,6.720644,0,0.0008598141139373
1778782979.820684,59004722,1,0.0010604213457554,0.0008128895424306,0.0007966336561366,-0.0004201112897135,-0.0025048465467989,-9.81708812713623,0,0,28.46577835083008,1,1,760,800,6.720644,0,0.0007966336561366
1778782979.860668,59044706,0,0.0007390666287392,0.0008408524445258,0.0007483015651814,-0.0015395758673548,-0.0019666389562189,-9.8173828125,0,0,28.46798324584961,1,1,1000,1000,6.760628,0,0.0007483015651814
1778782979.860668,59044706,1,0.0009711575694382,0.0008964876178652,0.0009158335160464,0.001221741666086,-0.0005476138903759,-9.819162368774414,0,0,28.46798324584961,1,1,760,800,6.760628,0,0.0009158335160464
1778782979.900652,59084690,0,0.0008626365452073,0.0008943595457822,0.0008556425455026,-0.0007937655318528,-0.0024123287294059,-9.817420959472656,0,0,28.47018814086914,1,1,1000,1000,6.800612,0,0.0008556425455026
1778782979.900652,59084690,1,0.0007577205542474,0.00103980244603,0.0008355390164069,-0.0019900042098015,-0.0005342264194041,-9.816726684570312,0,0,28.47018814086914,1,1,760,800,6.800612,0,0.0008355390164069
1778782979.940636,59124674,0,0.0008762686047703,0.0007857099408283,0.0007830880349501,-0.0013677056413143,-0.000479824404465,-9.816276550292969,0,0,28.47239112854004,1,1,1000,1000,6.840596,0,0.0007830880349501
1778782979.940636,59124674,1,0.0008430955349467,0.0008742142817936,0.000969337648712,-0.0021605943329632,-0.0010690971976146,-9.818775177001951,0,0,28.47239112854004,1,1,760,800,6.840596,0,0.000969337648712
1778782979.98062,59164658,0,0.0008844720432534,0.0007630654727108,0.0008481081458739,-0.0028320469427853,-0.0005676323198713,-9.817758560180664,0,0,28.474594116210938,1,1,1000,1000,6.88058,0,0.0008481081458739
1778782979.98062,59164658,1,0.0008161341538652,0.0006175277521833,0.0006155169685371,-0.0037678489461541,-0.0014543832512572,-9.816722869873049,0,0,28.474594116210938,1,1,760,800,6.88058,0,0.0006155169685371
1778782980.020604,59204642,0,0.0007889934931881,0.0008971979841589,0.0008399283979088,-0.0009222091175615,-0.0009844085434451,-9.817668914794922,0,0,28.47679710388184,1,1,1000,1000,6.920564,0,0.0008399283979088
1778782980.020604,59204642,1,0.0005815279437229,0.0007924761157482,0.000778078334406,-0.0031051950063556,0.0001871135900728,-9.81753158569336,0,0,28.47679710388184,1,1,760,800,6.920564,0,0.000778078334406
1778782980.060588,59244626,0,0.0008650931995362,0.0008331041317433,0.0008855006890371,-0.0012940348824486,0.0006145160878077,-9.817062377929688,0,0,28.47900009155273,1,1,1000,1000,6.960548,0,0.0008855006890371
1778782980.060588,59244626,1,0.0008782256627455,0.0007979222573339,0.0007818292360752,-0.0011631111847236,0.002870409283787,-9.81717586517334,0,0,28.47900009155273,1,1,760,800,6.960548,0,0.0007818292360752
1778782980.100572,59284610,0,0.0008066270384006,0.0007762642344459,0.0008202312747016,-0.0007900219643488,-0.0015123642515391,-9.817375183105469,0,0,28.481203079223636,1,1,1000,1000,7.000532,0,0.0008202312747016
1778782980.100572,59284610,1,0.0008573952363803,0.000748437596485,0.0008002223912626,-0.002141810953617,0.0012181894853711,-9.816944122314451,0,0,28.481203079223636,1,1,760,800,7.000532,0,0.0008002223912626
1778782980.140556,59324594,0,0.0008128793560899,0.0007290006615221,0.0008043092675507,-0.0002877512888517,7.024037040537223e-05,-9.818304061889648,0,0,28.48340606689453,1,1,1000,1000,7.040516,0,0.0008043092675507
1778782980.140556,59324594,1,0.0007838804740458,0.0005606364575214,0.0009849349735304,-0.0023252388928085,-0.0018157231388613,-9.81698226928711,0,0,28.48340606689453,1,1,760,800,7.040516,0,0.0009849349735304
1778782980.18054,59364578,0,0.0008326134411618,0.0008618153515271,0.0008233611006289,-0.0006776788504794,-0.0004076634068042,-9.818169593811035,0,0,28.4856071472168,1,1,1000,1000,7.0805,0,0.0008233611006289
1778782980.18054,59364578,1,0.0008071133634075,0.000978575553745,0.0009872026275843,-0.0022883252240717,-0.0015471598599106,-9.81944179534912,0,0,28.4856071472168,1,1,760,800,7.0805,0,0.0009872026275843
1778782980.220524,59404562,0,0.0007909686537459,0.0007691021892242,0.0008317574393004,-0.001228091539815,-0.0014523422578349,-9.817814826965332,0,0,28.48781013488769,1,1,1000,1000,7.120484,0,0.0008317574393004
1778782980.220524,59404562,1,0.00080567819532,0.000929643632844,0.000806309224572,-0.0028247924055904,-0.0005574218230322,-9.81683349609375,0,0,28.48781013488769,1,1,760,800,7.120484,0,0.000806309224572
1778782980.260508,59444546,0,0.0008786113467067,0.0008780579664744,0.0007984503754414,-0.0004366270441096,-0.0003930751408915,-9.817466735839844,0,0,28.49001121520996,1,1,1000,1000,7.160468,0,0.0007984503754414
1778782980.260508,59444546,1,0.0009124373318627,0.0008307592361234,0.0009642166551202,0.0007586705032736,0.000410984706832,-9.816680908203123,0,0,28.49001121520996,1,1,760,800,7.160468,0,0.0009642166551202
1778782980.300492,59484530,0,0.0008241791510954,0.0009328763117082,0.0008049832540564,-0.0004707762273028,-0.0011294807773083,-9.817262649536133,0,0,28.492212295532227,1,1,1000,1000,7.200452,0,0.0008049832540564
1778782980.300492,59484530,1,0.0008245434146374,0.0008742789505049,0.0009416633984073,-0.0023818146437406,-0.0010536722838878,-9.816530227661133,0,0,28.492212295532227,1,1,760,800,7.200452,0,0.0009416633984073
1778782980.340476,59524514,0,0.000909553898964,0.0008344816160388,0.000927145476453,-0.000446863414254,-0.0007564887055195,-9.81683349609375,0,0,28.49441337585449,1,1,1000,1000,7.240436,0,0.000927145476453
1778782980.340476,59524514,1,0.0007187722949311,0.0008682908955961,0.0008723774226382,-0.0005632602260448,0.0018757623620331,-9.816962242126465,0,0,28.49441337585449,1,1,760,800,7.240436,0,0.0008723774226382
1778782980.38046,59564498,0,0.0007815811550244,0.0008746937382966,0.0008730742847546,-0.0015996373258531,-0.0011511702323332,-9.818133354187012,0,0,28.496612548828125,1,1,1000,1000,7.28042,0,0.0008730742847546
1778782980.38046,59564498,1,0.0007340050651691,0.0009096778812818,0.0008028344600461,-0.0018505733460187,-0.0003404780873097,-9.81648063659668,0,0,28.496612548828125,1,1,760,800,7.28042,0,0.0008028344600461
1778782980.420444,59604482,0,0.0008210985688492,0.0008286305237561,0.0008777681505307,-0.0015712801832705,0.000549818505533,-9.817626953125,0,0,28.49881362915039,1,1,1000,1000,7.320404,0,0.0008777681505307
1778782980.420444,59604482,1,0.0004361069004517,0.0006918106228113,0.0009133672574535,0.0014498878736048,0.0003762523119803,-9.818167686462402,0,0,28.49881362915039,1,1,760,800,7.320404,0,0.0009133672574535
1778782980.460428,59644466,0,0.0008663285989314,0.0008205198100768,0.0008492943597957,-0.0013552114833146,-0.0008322380017489,-9.817262649536133,0,0,28.501012802124023,1,1,1000,1000,7.360388,0,0.0008492943597957
1778782980.460428,59644466,1,0.0009305650601163,0.0008657807484269,0.0009217211627401,-0.0036441329866647,-0.0010828655213117,-9.818639755249023,0,0,28.501012802124023,1,1,760,800,7.360388,0,0.0009217211627401
1778782980.500412,59684450,0,0.0008699651807546,0.0007529638241976,0.0007818308658897,-0.0006387365865521,-0.0008275255095213,-9.817811965942385,0,0,28.50321388244629,1,1,1000,1000,7.400372,0,0.0007818308658897
1778782980.500412,59684450,1,0.0009826476452872,0.0010589595185592,0.0006675430340692,-0.0035437957849353,-0.0013478160835802,-9.815658569335938,0,0,28.50321388244629,1,1,760,800,7.400372,0,0.0006675430340692
1778782980.540396,59724434,0,0.0008671312825754,0.0008151489309966,0.0008616286795586,-8.931079355534166e-05,-0.0008151298970915,-9.81789493560791,0,0,28.50541305541992,1,1,1000,1000,7.440356,0,0.0008616286795586
1778782980.540396,59724434,1,0.0007534754113294,0.0010596627835184,0.0009259568178094,-0.0001857245515566,0.0006267788121476,-9.81614112854004,0,0,28.50541305541992,1,1,760,800,7.440356,0,0.0009259568178094
1778782980.58038,59764418,0,0.0008078770479187,0.0009139842004515,0.0008902807021513,-0.0016980062937363,-0.001502688974142,-9.816335678100586,0,0,28.507612228393555,1,1,1000,1000,7.48034,0,0.0008902807021513
1778782980.58038,59764418,1,0.0008410004083998,0.0007109070429578,0.0009771377081051,-0.000887956644874,-0.0018444819143041,-9.817466735839844,0,0,28.507612228393555,1,1,760,800,7.48034,0,0.0009771377081051
1778782980.620364,59804402,0,0.0008683163905516,0.0007920168573036,0.0007812054245732,-0.0015469535719603,-0.0003616148605942,-9.81645679473877,0,0,28.509811401367188,1,1,1000,1000,7.520324,0,0.0007812054245732
1778782980.620364,59804402,1,0.0007597073563374,0.0009738891385495,0.0009792315540835,-0.0006035681581124,-0.0013804039917886,-9.817052841186523,0,0,28.509811401367188,1,1,760,800,7.520324,0,0.0009792315540835
1778782980.660348,59844386,0,0.0008375839679501,0.0008657211437821,0.0008040039101615,-0.0011360074859112,-0.0007080809446051,-9.81820011138916,0,0,28.512008666992188,1,1,1000,1000,7.560308,0,0.0008040039101615
1778782980.660348,59844386,1,0.0007841574843041,0.0007217096281237,0.0008173758396878,0.0018371504265815,-0.0002679133322089,-9.818277359008787,0,0,28.512008666992188,1,1,760,800,7.560308,0,0.0008173758396878
1778782980.700332,59884370,0,0.0008502052514813,0.0008370602154172,0.0008393090683966,-0.0006718669901601,-0.0009960836032405,-9.816848754882812,0,0,28.51420783996582,1,1,1000,1000,7.600292,0,0.0008393090683966
1778782980.700332,59884370,1,0.0007621406111866,0.0008496656664647,0.0010260685812681,-0.0013284580782055,0.0005236986326053,-9.817645072937012,0,0,28.51420783996582,1,1,760,800,7.600292,0,0.0010260685812681
1778782980.740316,59924354,0,0.0008142679580487,0.0008194671245291,0.0007793449331074,-0.0015819675754755,-0.0013553390745073,-9.817927360534668,0,0,28.51640510559082,1,1,1000,1000,7.640276,0,0.0007793449331074
1778782980.740316,59924354,1,0.0008134972304105,0.0007984083495102,0.000896182260476,0.0005660774186253,-0.0015936506679281,-9.817453384399414,0,0,28.51640510559082,1,1,760,800,7.640276,0,0.000896182260476
1778782980.7803,59964338,0,0.000877464772202,0.0008509230683557,0.0008610206423327,-0.0005500162369571,-0.000997501425445,-9.817404747009276,0,0,28.518604278564453,1,1,1000,1000,7.68026,0,0.0008610206423327
1778782980.7803,59964338,1,0.0008021218236535,0.0008092037169262,0.000873498735018,-0.0029203165322542,-0.0026798730250447,-9.81471061706543,0,0,28.518604278564453,1,1,760,800,7.68026,0,0.000873498735018
1778782980.820284,60004322,0,0.0008915823418647,0.0008600782603025,0.0008513501379638,-0.0015705678379163,-0.0014538583345711,-9.816946029663086,0,0,28.520801544189453,1,1,1000,1000,7.720244,0,0.0008513501379638
1778782980.820284,60004322,1,0.0008099909173324,0.0007723767776042,0.0008603119640611,-0.0006043572211638,-0.0014385480899363,-9.817030906677246,0,0,28.520801544189453,1,1,760,800,7.720244,0,0.0008603119640611
1778782980.860268,60044306,0,0.0008142521837726,0.0008490206673741,0.0008151666843332,-0.0010084168752655,-0.0016609176527708,-9.816923141479492,0,0,28.522998809814453,1,1,1000,1000,7.760228,0,0.0008151666843332
1778782980.860268,60044306,1,0.0007809956441633,0.0009289988665841,0.0009634433081373,-0.0016019316390156,-0.0010359664447605,-9.816621780395508,0,0,28.522998809814453,1,1,760,800,7.760228,0,0.0009634433081373
1778782980.900252,60084290,0,0.0008625093032605,0.000859523192048,0.000875640544109,-0.0014789095148444,-0.0014341266360133,-9.81706428527832,0,0,28.525196075439453,1,1,1000,1000,7.800212,0,0.000875640544109
1778782980.900252,60084290,1,0.0006843217415735,0.0008178057614713,0.0008650784147903,9.863172454060988e-05,-0.0011861512903124,-9.818243980407717,0,0,28.525196075439453,1,1,760,800,7.800212,0,0.0008650784147903
1778782980.940236,60124274,0,0.000860491709318,0.0008359383209608,0.0008630575612187,-0.0014992717187851,-0.0008243267657235,-9.81658172607422,0,0,28.52739143371582,1,1,1000,1000,7.840196,0,0.0008630575612187
1778782980.940236,60124274,1,0.0009384814766235,0.0008453596383333,0.0007830385584384,0.0012063625035807,-0.0002787530247587,-9.821176528930664,0,0,28.52739143371582,1,1,760,800,7.840196,0,0.0007830385584384
1778782980.98022,60164258,0,0.0008533936925232,0.0008450325112789,0.0008520850678905,-0.0017739909235388,-0.0012572485720738,-9.817338943481444,0,0,28.529586791992188,1,1,1000,1000,7.88018,0,0.0008520850678905
1778782980.98022,60164258,1,0.000834641221445,0.0008974328520707,0.0007503117667511,-0.0016889587277546,-0.0022604865953326,-9.816854476928713,0,0,28.529586791992188,1,1,760,800,7.88018,0,0.0007503117667511
1778782981.020204,60204242,0,0.0008626596536487,0.0008322095964103,0.0008331987191922,-0.0013435273431241,-0.0012163523351773,-9.817527770996094,0,0,28.531782150268555,1,1,1000,1000,7.920164,0,0.0008331987191922
1778782981.020204,60204242,1,0.000863391906023,0.0007817158475518,0.0008951342897489,0.0023065423592925,0.0003494041156955,-9.818565368652344,0,0,28.531782150268555,1,1,760,800,7.920164,0,0.0008951342897489
1778782981.060188,60244226,0,0.0008983773877844,0.0008168698986992,0.0008838971261866,-0.0010102784726768,-0.0011593627277761,-9.81759262084961,0,0,28.533924102783203,1,1,1000,1000,7.960148,0,0.0008838971261866
1778782981.060188,60244226,1,0.0008082794374786,0.0007464693626388,0.0007945126853883,-0.0006941520841792,0.0012323772534728,-9.818739891052246,0,0,28.533924102783203,1,1,760,800,7.960148,0,0.0007945126853883
1778782981.100172,60284210,0,0.0008692263509146,0.0009156587184406,0.0007917190669104,-0.0005743613583035,-0.0012476395349949,-9.818042755126951,0,0,28.53611946105957,1,1,1000,1000,8.000132,0,0.0007917190669104
1778782981.100172,60284210,1,0.0008546603494323,0.000805070856586,0.0008400090155191,-0.0009182062931358,-0.0006588284159079,-9.818225860595703,0,0,28.53611946105957,1,1,760,800,8.000132,0,0.0008400090155191
1778782981.140156,60324194,0,0.0008272768463939,0.0008882082183845,0.00082095869584,-0.0018268980784341,-0.0016230319160968,-9.817646980285645,0,0,28.538314819335938,1,1,1000,1000,8.040116,0,0.00082095869584
1778782981.140156,60324194,1,0.0007203530985862,0.0008459870587103,0.0008447064319625,-0.0014290516264736,0.0003590841370169,-9.817508697509766,0,0,28.538314819335938,1,1,760,800,8.040116,0,0.0008447064319625
1778782981.18014,60364178,0,0.0008424798143096,0.0008776354370638,0.0008379996870644,-0.000517665001098,-0.0006426748586818,-9.817790985107422,0,0,28.540508270263672,1,1,1000,1000,8.0801,0,0.0008379996870644
1778782981.18014,60364178,1,0.0008408440626226,0.0008572580409236,0.0008381902589462,-0.0010632259072735,-0.0006471400847658,-9.81584930419922,0,0,28.540508270263672,1,1,760,800,8.0801,0,0.0008381902589462
1778782981.220124,60404162,0,0.000870362506248,0.0008104259613901,0.0008500046096742,-0.0006418075063265,-0.0009705805568955,-9.81853199005127,0,0,28.54270362854004,1,1,1000,1000,8.120084,0,0.0008500046096742
1778782981.220124,60404162,1,0.0007947984850034,0.0007327308412641,0.0007838616147637,-0.0030590451788157,-0.0012301632668823,-9.81900405883789,0,0,28.54270362854004,1,1,760,800,8.120084,0,0.0007838616147637
1778782981.260108,60444146,0,0.000777383102104,0.0008806969271972,0.0007946918485686,-0.0013145400444045,-0.000650601403322,-9.817418098449709,0,0,28.544898986816406,1,1,1000,1000,8.160068,0,0.0007946918485686
1778782981.260108,60444146,1,0.0008111805655062,0.000963354948908,0.0010476903989911,-0.0029133053030818,0.0004796073772013,-9.815924644470217,0,0,28.544898986816406,1,1,760,800,8.160068,0,0.0010476903989911
1778782981.300092,60484130,0,0.0008578444831073,0.0008273936109617,0.0008731188718229,0.0002038801030721,-0.0012342173140496,-9.81761360168457,0,0,28.54709243774414,1,1,1000,1000,8.200052,0,0.0008731188718229
1778782981.300092,60484130,1,0.0009817192330956,0.0007985188276506,0.0011250406969338,-0.0010509778512641,-0.0011159812565892,-9.819742202758787,0,0,28.54709243774414,1,1,760,800,8.200052,0,0.0011250406969338
1778782981.340076,60524114,0,0.0008489929023198,0.0009132752893492,0.000869290321134,-0.0004483970114961,-0.0006176473107188,-9.818098068237305,0,0,28.549285888671875,1,1,1000,1000,8.240036,0,0.000869290321134
1778782981.340076,60524114,1,0.0008814786560833,0.0007811739342287,0.0010349017102271,-0.0007924867677502,0.0003049863735213,-9.816678047180176,0,0,28.549285888671875,1,1,760,800,8.240036,0,0.0010349017102271
1778782981.38006,60564098,0,0.0008288561366498,0.0008506138692609,0.0008585326140746,-0.0016623970586806,-0.0009801074629649,-9.81682300567627,0,0,28.55147933959961,1,1,1000,1000,8.28002,0,0.0008585326140746
1778782981.38006,60564098,1,0.0008136198157444,0.0007822211482562,0.0007733152015134,-0.0009219221537932,-0.0030818700324743,-9.816570281982422,0,0,28.55147933959961,1,1,760,800,8.28002,0,0.0007733152015134
1778782981.420044,60604082,0,0.0008618065621703,0.00083771685604,0.0008928495226427,-0.0020814249292016,-0.0012164777144789,-9.818446159362791,0,0,28.553672790527344,1,1,1000,1000,8.320004,0,0.0008928495226427
1778782981.420044,60604082,1,0.0007762976456433,0.0008214261033572,0.0008769839769229,-0.000769963953644,-6.258418579818681e-05,-9.817998886108398,0,0,28.553672790527344,1,1,760,800,8.320004,0,0.0008769839769229
1778782981.460028,60644066,0,0.0009005737956613,0.0008017793297767,0.0008705327054485,-0.001047054072842,-0.0011870411690324,-9.816764831542969,0,0,28.5559196472168,1,1,1000,1000,8.359988,0,0.0008705327054485
1778782981.460028,60644066,1,0.0005847151624038,0.0008484495338052,0.0010210217442363,-0.0015888733323663,-0.0036178776063024,-9.815746307373049,0,0,28.555864334106445,1,1,760,800,8.359988,0,0.0010210217442363
1778782981.500012,60684050,0,0.000844505499117,0.000867617840413,0.000828024931252,-0.0017310952534899,-0.0019382559694349,-9.816762924194336,0,0,28.5581111907959,1,1,1000,1000,8.399972,0,0.000828024931252
1778782981.500012,60684050,1,0.0007862329366616,0.000608077738434,0.0008227287326008,0.0001601535041118,-0.0011249323142692,-9.815829277038574,0,0,28.558055877685547,1,1,760,800,8.399972,0,0.0008227287326008
1778782981.539996,60724034,0,0.0008292556740343,0.0008940690895542,0.0008650454110465,-0.0011509897885844,-0.0006538272718898,-9.817633628845217,0,0,28.560302734375,1,1,1000,1000,8.439956,0,0.0008650454110465
1778782981.539996,60724034,1,0.0008294827421195,0.0007815948338247,0.0007848520763218,0.0010828321101143,-0.0004344878543633,-9.815988540649414,0,0,28.56024932861328,1,1,760,800,8.439956,0,0.0007848520763218
1778782981.5808132,60764851,0,0.0008887351723387,0.0009170715347863,0.0008433728362433,-0.0010441604536026,-0.0017519842367619,-9.909085273742676,0,0,28.56249618530273,1,1,1000,1000,8.480773,0,0.0008433728362433
1778782981.5808132,60764851,1,0.0007152069592848,0.0007205631118267,0.0009410143247805,-0.0002485515724401,-0.0007706818869337,-9.911259651184082,0,0,28.56249618530273,1,1,760,800,8.480773,0,0.0009410143247805
1778782981.6207972,60804835,0,0.0008446914725936,0.0008431401802226,0.0008313622674904,-0.0013317128177732,-0.0009682881645858,-10.438098907470703,0,0,28.564685821533203,1,1,1000,1000,8.520757,0,0.0008313622674904
1778782981.6207972,60804835,1,0.0009807402966544,0.000832752615679,0.0007864834624342,0.0011831442825496,-0.0009603453218005,-10.436908721923828,0,0,28.564685821533203,1,1,760,800,8.520757,0,0.0007864834624342
1778782981.6607811,60844819,0,0.0008440744131803,0.0008715980220586,0.0008558268891647,-0.0016194346826523,-0.0009197206818498,-10.422880172729492,0,0,28.566877365112305,1,1,1000,1000,8.560741,0,0.0008558268891647
1778782981.6607811,60844819,1,0.0007688913028687,0.0009456036495976,0.0008179821306839,-0.0011457636719569,-0.0005383222596719,-10.423715591430664,0,0,28.566877365112305,1,1,760,800,8.560741,0,0.0008179821306839
1778782981.7007651,60884803,0,0.0008717511664144,0.0008519921684637,0.0008251534309238,-0.0018744454719126,-0.0009405832970514,-10.364848136901855,0,0,28.569068908691406,1,1,1000,1000,8.600725,0,0.0008251534309238
1778782981.7007651,60884803,1,0.0008915407233871,0.0008451975882053,0.0008704062202014,-0.0005290378467179,-0.0002060529659502,-10.365471839904783,0,0,28.569068908691406,1,1,760,800,8.600725,0,0.0008704062202014
1778782981.7407491,60924787,0,0.0008957604295574,0.0008399747312068,0.0008926558075472,-0.0019312493968755,-0.0019083308288827,-10.401660919189451,0,0,28.571260452270508,1,1,1000,1000,8.640709,0,0.0008926558075472
1778782981.7407491,60924787,1,0.0008155539981089,0.0009229650604538,0.0010140266967937,-0.0004265719617251,-0.0011150503996759,-10.402209281921388,0,0,28.571260452270508,1,1,760,800,8.640709,0,0.0010140266967937
1778782981.780733,60964771,0,0.0009333342313766,0.0008438032236881,0.0008655912242829,-0.0008482982520945,-0.0007862743223086,-10.395471572875977,0,0,28.573450088500977,1,1,1000,1000,8.680693,0,0.0008655912242829
1778782981.780733,60964771,1,0.000917077763006,0.000890809984412,0.0008709932444617,-0.0007488979608751,-0.0005206520436331,-10.39687156677246,0,0,28.573450088500977,1,1,760,800,8.680693,0,0.0008709932444617
1778782981.820717,61004755,0,0.0007978521753102,0.0008581205038353,0.0008265553042292,-0.0011029371526092,-0.0005793051095679,-10.367029190063477,0,0,28.575639724731445,1,1,1000,1000,8.720677,0,0.0008265553042292
1778782981.820717,61004755,1,0.0009503521723672,0.0008158364216797,0.0008171659428626,0.0011934245703741,-0.0002430378081044,-10.36689281463623,0,0,28.575639724731445,1,1,760,800,8.720677,0,0.0008171659428626
1778782981.860701,61044739,0,0.000858602230437,0.0008876085630618,0.0008931823540478,-0.0009138773893937,-0.0015872939256951,-10.347785949707031,0,0,28.577829360961918,1,1,1000,1000,8.760661,0,0.0008931823540478
1778782981.860701,61044739,1,0.0007355135167017,0.0007562157115899,0.000928713241592,-0.0010409468086436,-0.0008078319951891,-10.350614547729492,0,0,28.577829360961918,1,1,760,800,8.760661,0,0.000928713241592
1778782981.900685,61084723,0,0.0008659520535729,0.0008414818439632,0.0008454809430986,-0.001184016582556,-0.001092642894946,-10.343740463256836,0,0,28.580018997192383,1,1,1000,1000,8.800645,0,0.0008454809430986
1778782981.900685,61084723,1,0.0008572313818149,0.0007820839527994,0.0007592450128868,-0.0011722146300598,-0.0008786451653577,-10.341984748840332,0,0,28.580018997192383,1,1,760,800,8.800645,0,0.0007592450128868
1778782981.940669,61124707,0,0.0008377567864954,0.0008322239737026,0.0009014740935526,-0.0013312867376953,-0.0010552960447967,-10.34693717956543,0,0,28.58220863342285,1,1,1000,1000,8.840629,0,0.0009014740935526
1778782981.940669,61124707,1,0.0007327637868002,0.0008836350170895,0.0008579263230785,-0.0022240974940359,-0.0019444334320724,-10.345088958740234,0,0,28.58220863342285,1,1,760,800,8.840629,0,0.0008579263230785
1778782981.980653,61164691,0,0.0008465916616842,0.000876858306583,0.0008634747355245,-0.0010059237247332,-0.0019998950883746,-10.354225158691406,0,0,28.584396362304688,1,1,1000,1000,8.880613,0,0.0008634747355245
1778782981.980653,61164691,1,0.0007354789995588,0.0008591909427195,0.0008245032513514,0.0020581320859491,0.0007088842103257,-10.35221004486084,0,0,28.584396362304688,1,1,760,800,8.880613,0,0.0008245032513514
1778782982.020637,61204675,0,0.0008174658287316,0.0009206207469105,0.0008821226656436,-0.0003290199674665,-0.0007733039092272,-10.36837673187256,0,0,28.58658599853516,1,1,1000,1000,8.920597,0,0.0008821226656436
1778782982.020637,61204675,1,0.0008886030409485,0.0009384345030412,0.0009501538588665,-0.0022085150703787,-0.0006552557460963,-10.368982315063477,0,0,28.58658599853516,1,1,760,800,8.920597,0,0.0009501538588665
1778782982.060621,61244659,0,0.0008696934673935,0.0009194512385874,0.0008788227569311,-0.000500438734889,-0.0012925832998007,-10.381263732910156,0,0,28.588773727416992,1,1,1000,1000,8.960581,0,0.0008788227569311
1778782982.060621,61244659,1,0.0008880069945007,0.0009574353462085,0.0007718627457506,-0.0028048316016793,-0.000215157342609,-10.38065242767334,0,0,28.588773727416992,1,1,760,800,8.960581,0,0.0007718627457506
1778782982.100605,61284643,0,0.0008113520452752,0.0008637545979581,0.0007887843530625,-0.0005263115745037,-0.000747394748032,-10.39974308013916,0,0,28.59096336364746,1,1,1000,1000,9.000565,0,0.0007887843530625
1778782982.100605,61284643,1,0.0008741087513044,0.0007699824054725,0.0009042947785928,0.0004342757747508,0.0005397032364271,-10.39649772644043,0,0,28.59096336364746,1,1,760,800,9.000565,0,0.0009042947785928
1778782982.140589,61324627,0,0.0009242478990927,0.0008340154308825,0.0007698485860601,-0.0005690890247933,-0.000425201607868,-10.415803909301758,0,0,28.593151092529297,1,1,1000,1000,9.040549,0,0.0007698485860601
1778782982.140589,61324627,1,0.000890624243766,0.0010249955812469,0.0010024703806266,0.0011658524163067,-0.0013705425662919,-10.409110069274902,0,0,28.593151092529297,1,1,760,800,9.040549,0,0.0010024703806266
1778782982.1805727,61364611,0,0.0008604739559814,0.0008708968525752,0.000868646427989,-0.0008105608867481,-0.0026065201964229,-10.43144416809082,0,0,28.5953369140625,1,1,1000,1000,9.080533,0,0.000868646427989
1778782982.1805727,61364611,1,0.000694986374583,0.0007005165098235,0.0007405001088045,-0.0022411728277802,-0.0011101344134658,-10.431398391723633,0,0,28.5953369140625,1,1,760,800,9.080533,0,0.0007405001088045
1778782982.2205567,61404595,0,0.0009066022466868,0.0008152307127602,0.0008896727231331,-0.0016930184792727,-0.0011379173956811,-10.447139739990234,0,0,28.597524642944336,1,1,1000,1000,9.120517,0,0.0008896727231331
1778782982.2205567,61404595,1,0.0010097080375999,0.0009333093767054,0.0008758963085711,-0.0012074436526745,0.0007719718269072,-10.442973136901855,0,0,28.597524642944336,1,1,760,800,9.120517,0,0.0008758963085711
1778782982.2605407,61444579,0,-0.030461736023426,-0.0277925506234169,0.001105077099055,-0.001014852663502,-0.0012787337182089,-13.17739200592041,0,0,28.59971237182617,1,1,1000,1000,9.160501,0,0.001105077099055
1778782982.2605407,61444579,1,-0.0305569414049386,-0.027857456356287,0.0011903252452611,-0.0007740816217847,0.0009815348312258,-13.197898864746094,0,0,28.59971237182617,1,1,760,800,9.160501,0,0.0011903252452611
1778782982.3005252,61484563,0,-0.0329236947000026,-0.0327524505555629,0.0015288686845451,-0.0053503080271184,0.0037604751996695,-15.126346588134766,0,0,28.60189819335937,1,1,1000,1000,9.200485,0,0.0015288686845451
1778782982.3005252,61484563,1,-0.0327926278114318,-0.0323776118457317,0.0015048356726765,-0.0041481414809823,0.0018034023232758,-15.153834342956545,0,0,28.60189819335937,1,1,760,800,9.200485,0,0.0015048356726765
1778782982.3405092,61524547,0,-0.0309529695659875,-0.0297064967453479,0.0018647923134267,-0.0133921345695853,0.0122199766337871,-14.747175216674805,0,0,28.604084014892575,1,1,1000,1000,9.240469,0,0.0018647923134267
1778782982.3405092,61524547,1,-0.0311139449477195,-0.029703252017498,0.0018157218582928,-0.0137868644669651,0.0106821302324533,-14.766788482666016,0,0,28.604084014892575,1,1,760,800,9.240469,0,0.0018157218582928
1778782982.3804932,61564531,0,-0.0263893026858568,-0.0259680878371,0.002178587950766,-0.0202259067445993,0.0187053754925727,-13.673731803894045,0,0,28.60626983642578,1,1,1000,1000,9.280453,0,0.002178587950766
1778782982.3804932,61564531,1,-0.0262929387390613,-0.0260586943477392,0.0022468725219368,-0.0199338160455226,0.0195972546935081,-13.685564994812012,0,0,28.60626983642578,1,1,760,800,9.280453,0,0.0022468725219368
1778782982.4204772,61604515,0,-0.0216937065124511,-0.0214982405304908,0.0022372202947735,-0.0241855047643184,0.0225692894309759,-12.449222564697266,0,0,28.608455657958984,1,1,1000,1000,9.320437,0,0.0022372202947735
1778782982.4204772,61604515,1,-0.0217143353074789,-0.0216947253793478,0.0022604460828006,-0.0263577941805124,0.0246175732463598,-12.457430839538574,0,0,28.608455657958984,1,1,760,800,9.320437,0,0.0022604460828006
1778782982.4604611,61644499,0,-0.0170482844114303,-0.0155218131840229,0.0022747453767806,-0.0232921093702316,0.022355455905199,-11.299857139587402,0,0,28.610641479492188,1,1,1000,1000,9.360421,0,0.0022747453767806
1778782982.4604611,61644499,1,-0.0170954838395118,-0.0155093260109424,0.0021944190375506,-0.0250522959977388,0.0217101015150547,-11.30029582977295,0,0,28.610641479492188,1,1,760,800,9.360421,0,0.0021944190375506
1778782982.5004451,61684483,0,-0.0098747098818421,-0.0100132785737514,0.0023513997439295,-0.0189974270761013,0.0180362500250339,-10.359743118286133,0,0,28.61282730102539,1,1,1000,1000,9.400405,0,0.0023513997439295
1778782982.5004451,61684483,1,-0.0098441187292337,-0.0100516444072127,0.0022794129326939,-0.0192987341433763,0.0165713354945182,-10.356038093566896,0,0,28.61282730102539,1,1,760,800,9.400405,0,0.0022794129326939
1778782982.540429,61724467,0,-0.0048714149743318,-0.0058842129074037,0.0023749826941639,-0.01378920301795,0.0117082390934228,-9.696446418762209,0,0,28.61501121520996,1,1,1000,1000,9.440389,0,0.0023749826941639
1778782982.540429,61724467,1,-0.0048781265504658,-0.0056992592290043,0.0024560687597841,-0.0153800528496503,0.0124095752835273,-9.691898345947266,0,0,28.61501121520996,1,1,760,800,9.440389,0,0.0024560687597841
1778782982.580413,61764451,0,-0.0001469901762902,0.0002453780616633,0.0023024196270853,-0.0084559470415115,0.0065442100167274,-9.310540199279783,0,0,28.61719512939453,1,1,1000,1000,9.480373,0,0.0023024196270853
1778782982.580413,61764451,1,-8.718930621398613e-05,4.117143544135615e-05,0.0024775122292339,-0.0089391553774476,0.0090995281934738,-9.303346633911133,0,0,28.61719512939453,1,1,760,800,9.480373,0,0.0024775122292339
1778782982.620397,61804435,0,0.003850165521726,0.0044039208441972,0.0023149529006332,-0.0042808437719941,0.0013773821992799,-9.175851821899414,0,0,28.61938095092773,1,1,1000,1000,9.520357,0,0.0023149529006332
1778782982.620397,61804435,1,0.0036425807047635,0.0043942872434854,0.0024138253647834,-0.0021884634625166,0.0011776104802265,-9.168797492980955,0,0,28.61938095092773,1,1,760,800,9.520357,0,0.0024138253647834
1778782982.660381,61844419,0,0.0051824417896568,0.0048670237883925,0.0022489377297461,-0.0013161962851881,-0.0001108156648115,-9.229669570922852,0,0,28.621562957763672,1,1,1000,1000,9.560341,0,0.0022489377297461
1778782982.660381,61844419,1,0.0051494897343218,0.0047766994684934,0.0022526113316416,-0.0012819677358493,-0.0006096778088249,-9.22309684753418,0,0,28.621562957763672,1,1,760,800,9.560341,0,0.0022526113316416
1778782982.700365,61884403,0,0.0111211547628045,0.0108632007613778,0.0021607412490993,-0.0013779879081994,-0.0017220033332705,-9.418292045593262,0,0,28.623748779296875,1,1,1000,1000,9.600325,0,0.0021607412490993
1778782982.700365,61884403,1,0.0108685884624719,0.010861893184483,0.0023095947690308,-0.0004773086402565,-0.0005277672316879,-9.41169548034668,0,0,28.623748779296875,1,1,760,800,9.600325,0,0.0023095947690308
1778782982.740349,61924387,0,0.0142081854864954,0.0143901472911238,0.0021782866679131,5.832940587424673e-05,-0.0025295277591794,-9.67283535003662,0,0,28.62593078613281,1,1,1000,1000,9.640309,0,0.0021782866679131
1778782982.740349,61924387,1,0.0140332570299506,0.0143928341567516,0.0021684393286705,-0.0013678235700353,-0.0011236974969506,-9.666484832763672,0,0,28.62593078613281,1,1,760,800,9.640309,0,0.0021684393286705
1778782982.780333,61964371,0,0.0163397174328565,0.0161347426474094,0.0019854796119034,-0.0017642568564042,0.0003359333786647,-9.947070121765137,0,0,28.628114700317383,1,1,1000,1000,9.680293,0,0.0019854796119034
1778782982.780333,61964371,1,0.0162864997982978,0.0160569157451391,0.0021894504316151,0.0001687303592916,0.0014693868579342,-9.944498062133787,0,0,28.628114700317383,1,1,760,800,9.680293,0,0.0021894504316151
1778782982.820317,62004355,0,0.0172410663217306,0.0170668233186006,0.0019407171057537,-0.0025394856929779,0.0021657380275428,-10.204687118530272,0,0,28.63029670715332,1,1,1000,1000,9.720277,0,0.0019407171057537
1778782982.820317,62004355,1,0.0172205884009599,0.0171532053500413,0.0018945939373224,-0.0007811223622411,-0.0002848567673936,-10.2027006149292,0,0,28.63029670715332,1,1,760,800,9.720277,0,0.0018945939373224
1778782982.860301,62044339,0,0.0184779502451419,0.0182365607470273,0.0018745354609563,-0.0049556731246411,0.0036530054640024,-10.417247772216797,0,0,28.632478713989254,1,1,1000,1000,9.760261,0,0.0018745354609563
1778782982.860301,62044339,1,0.0184190291911363,0.0182209610939025,0.0019766804762184,-0.0029575210064649,0.0034276419319212,-10.41503620147705,0,0,28.632478713989254,1,1,760,800,9.760261,0,0.0019766804762184
1778782982.900285,62084323,0,0.0197893213480711,0.0195333920419216,0.0017638448625802,-0.0067306216806173,0.0044252341613173,-10.60451889038086,0,0,28.634660720825195,1,1,1000,1000,9.800245,0,0.0017638448625802
1778782982.900285,62084323,1,0.0199557915329933,0.0195046104490757,0.0017089566681534,-0.0054278397001326,0.0041232476942241,-10.606941223144531,0,0,28.634660720825195,1,1,760,800,9.800245,0,0.0017089566681534
1778782982.9402688,62124307,0,0.0206835027784109,0.0186413004994392,0.0016651542391628,-0.007369908504188,0.0063914218917489,-10.70181369781494,0,0,28.636842727661133,1,1,1000,1000,9.840229,0,0.0016651542391628
1778782982.9402688,62124307,1,0.0206479132175445,0.0185118578374385,0.0017073162598535,-0.0083734691143035,0.0068380767479538,-10.69964599609375,0,0,28.636842727661133,1,1,760,800,9.840229,0,0.0017073162598535
1778782982.9802527,62164291,0,0.0178100503981113,0.0187775418162345,0.0016280312556773,-0.0090202158316969,0.0068307188339531,-10.776529312133787,0,0,28.63902473449707,1,1,1000,1000,9.880213,0,0.0016280312556773
1778782982.9802527,62164291,1,0.0179969556629657,0.0187913626432418,0.001594653353095,-0.0091801444068551,0.0063998410478234,-10.777962684631348,0,0,28.63902473449707,1,1,760,800,9.880213,0,0.001594653353095
1778782983.0202367,62204275,0,0.0161248110234737,0.0149702792987227,0.0015804809518158,-0.0083096642047166,0.0076789669692516,-10.818154335021973,0,0,28.641206741333008,1,1,1000,1000,9.920197,0,0.0015804809518158
1778782983.0202367,62204275,1,0.0163143500685691,0.015136681497097,0.0017393808811903,-0.0092380791902542,0.0098820235580205,-10.818320274353027,0,0,28.641206741333008,1,1,760,800,9.920197,0,0.0017393808811903
1778782983.0602212,62244259,0,0.0146556459367275,0.012875129468739,0.0015638971235603,-0.0086487736552953,0.0075577097013592,-10.839442253112791,0,0,28.643386840820312,1,1,1000,1000,9.960181,0,0.0015638971235603
1778782983.0602212,62244259,1,0.0148537065833807,0.012892885133624,0.0015719928778707,-0.007918962277472,0.0074279671534895,-10.840103149414062,0,0,28.643386840820312,1,1,760,800,9.960181,0,0.0015719928778707
1778782983.1002052,62284243,0,0.0133715327829122,0.0117597728967666,0.0014786922838538,-0.009808050468564,0.0075097568333148,-10.843403816223145,0,0,28.64556884765625,1,1,1000,1000,10.000165,1,0.8014786922838538
1778782983.1002052,62284243,1,0.0134542658925056,0.011674229055643,0.0015006784815341,-0.0086512081325054,0.009048300795257,-10.843389511108398,0,0,28.64556884765625,1,1,760,800,10.000165,1,0.8015006784815342
1778782983.1401892,62324227,0,0.0122499801218509,0.0107003450393676,0.0014421893283724,-0.0087751895189285,0.0071929334662854,-10.827034950256348,0,0,28.647693634033203,1,1,1000,1000,10.040149,1,0.8014421893283724
1778782983.1401892,62324227,1,0.0123753864318132,0.0107115879654884,0.0013823851477354,-0.0088511584326624,0.0070217223837971,-10.826604843139648,0,0,28.647693634033203,1,1,760,800,10.040149,1,0.8013823851477354
1778782983.1801732,62364211,0,0.0114346826449036,0.010310661047697,0.0013698986731469,-0.009169677272439,0.0064683696255087,-10.803173065185549,0,0,28.649873733520508,1,1,1000,1000,10.080133,1,0.8013698986731469
1778782983.1801732,62364211,1,0.0113835465162992,0.0102323647588491,0.0015220962231978,-0.0087026534602046,0.0078592058271169,-10.805822372436523,0,0,28.649873733520508,1,1,760,800,10.080133,1,0.8015220962231978
1778782983.2201571,62404195,0,0.0096848215907812,0.0094289127737283,0.0013991944724693,-0.0093690017238259,0.0070110685192048,-10.804311752319336,0,0,28.65205383300781,1,1,1000,1000,10.120117,1,0.8013991944724693
1778782983.2201571,62404195,1,0.0098548401147127,0.0095405708998441,0.0013881700579077,-0.0080982893705368,0.0087052853778004,-10.80665397644043,0,0,28.65205383300781,1,1,760,800,10.120117,1,0.8013881700579077
1778782983.2601411,62444179,0,0.0103021441027522,0.0095995115116238,0.0013716592220589,-0.0092736575752496,0.0069110943004488,-10.804550170898438,0,0,28.65423393249512,1,1,1000,1000,10.160101,1,0.801371659222059
1778782983.2601411,62444179,1,0.0101506672799587,0.0096784057095646,0.0013941430952399,-0.0096532870084047,0.006950725801289,-10.80518627166748,0,0,28.65423393249512,1,1,760,800,10.160101,1,0.8013941430952399
1778782983.3001251,62484163,0,0.0055813966318964,0.0055826101452112,0.0014019410591572,-0.009578738361597,0.0080409087240695,-10.808212280273438,0,0,28.65641212463379,1,1,1000,1000,10.200085,1,0.8014019410591573
1778782983.3001251,62484163,1,0.0055432212539017,0.005652567371726,0.0014773501316085,-0.0094261514022946,0.0061401771381497,-10.80600357055664,0,0,28.65641212463379,1,1,760,800,10.200085,1,0.8014773501316086
1778782983.340109,62524147,0,0.0099412705749273,0.0096401777118444,0.0013979569775983,-0.008829834870994,0.0074363513849675,-10.80869483947754,0,0,28.658592224121094,1,1,1000,1000,10.240069,1,0.8013979569775983
1778782983.340109,62524147,1,0.0100202644243836,0.0097381882369518,0.0016196020878851,-0.0084795448929071,0.0054812156595289,-10.808660507202148,0,0,28.658592224121094,1,1,760,800,10.240069,1,0.8016196020878852
1778782983.380093,62564131,0,0.0040964316576719,0.0037900984752923,0.0014139317208901,-0.0087510608136653,0.0068370988592505,-10.814786911010742,0,0,28.66077041625977,1,1,1000,1000,10.280053,1,0.8014139317208901
1778782983.380093,62564131,1,0.0040268748998641,0.0038527972064912,0.0014217144344002,-0.0083436286076903,0.0073096961714327,-10.814621925354004,0,0,28.66077041625977,1,1,760,800,10.280053,1,0.8014217144344002
1778782983.420077,62604115,0,0.0059867370873689,0.0076434137299656,0.0013746782205998,-0.0091326292604208,0.0064573576673865,-10.82196807861328,0,0,28.66294860839844,1,1,1000,1000,10.320037,1,0.8013746782205998
1778782983.420077,62604115,1,0.0057390592992305,0.0075100436806678,0.0014271589461714,-0.0116572258993983,0.0089048212394118,-10.82248592376709,0,0,28.66294860839844,1,1,760,800,10.320037,1,0.8014271589461714
1778782983.460061,62644099,0,0.0062137595377862,0.0018442212603986,0.001291382825002,-0.0086025837808847,0.0062975753098726,-10.838311195373535,0,0,28.66512680053711,1,1,1000,1000,10.360021,1,0.801291382825002
1778782983.460061,62644099,1,0.0062800161540508,0.0018961157184094,0.0013307114131748,-0.0076797152869403,0.0069520282559096,-10.837076187133787,0,0,28.66512680053711,1,1,760,800,10.360021,1,0.8013307114131748
1778782983.500045,62684083,0,0.0025610316079109,0.0058549549430608,0.0013266457244753,-0.0091432677581906,0.0065517891198396,-10.852705955505373,0,0,28.66730499267578,1,1,1000,1000,10.400005,1,0.8013266457244753
1778782983.500045,62684083,1,0.0025160703808069,0.00567411724478,0.0012427186593413,-0.0071716262027621,0.0036146133206784,-10.854337692260742,0,0,28.66730499267578,1,1,760,800,10.400005,1,0.8012427186593414
1778782983.540029,62724067,0,0.0049256477504968,0.0032593125943094,0.0014146092580631,-0.0080012967810034,0.0051290285773575,-10.85982894897461,0,0,28.669483184814453,1,1,1000,1000,10.439989,1,0.8014146092580632
1778782983.540029,62724067,1,0.0050537814386188,0.0029757982119917,0.0014477745862677,-0.0088202990591526,0.007071167230606,-10.86030387878418,0,0,28.669483184814453,1,1,760,800,10.439989,1,0.8014477745862677
1778782983.580013,62764051,0,0.0050732628442347,0.0011814832687377,0.0013656988739967,-0.0078738955780863,0.0060452800244092,-10.85765266418457,0,0,28.671714782714844,1,1,1000,1000,10.479973,1,0.8013656988739968
1778782983.580013,62764051,1,0.0050128302536904,0.0014022238319739,0.0012636232422664,-0.0100228376686573,0.0052358992397785,-10.85861873626709,0,0,28.671661376953125,1,1,760,800,10.479973,1,0.8012636232422664
1778782983.619997,62804035,0,0.0006259236834011,0.0011927934829145,0.0015338973607867,-0.006852607242763,0.0060376776382327,-10.877449035644531,0,0,28.673891067504883,1,1,1000,1000,10.519957,1,0.8015338973607867
1778782983.619997,62804035,1,0.00064277095953,0.0012014363892376,0.00163567927666,-0.0091438731178641,0.0062570041045546,-10.878393173217772,0,0,28.673837661743164,1,1,760,800,10.519957,1,0.80163567927666
1778782983.660814,62844852,0,0.000781312410254,0.0011871786555275,0.0014325666707009,-0.0073572327382862,0.0039759473875164,-10.861411094665527,0,0,28.67606735229492,1,1,1000,1000,10.560774,1,0.801432566670701
1778782983.660814,62844852,1,0.0007470258278772,0.0011427220888435,0.0016103361267596,-0.0089347884058952,0.0063687087967991,-10.86103630065918,0,0,28.67606735229492,1,1,760,800,10.560774,1,0.8016103361267597
1778782983.700798,62884836,0,0.0028145723044872,0.0011363318189978,0.0015654439339414,-0.0071310093626379,0.0034055595751851,-10.879924774169922,0,0,28.67824363708496,1,1,1000,1000,10.600758,1,0.8015654439339415
1778782983.700798,62884836,1,0.0029104063287377,0.0012367361923679,0.0017867310671135,-0.0042225420475006,0.0064730928279459,-10.880708694458008,0,0,28.67824363708496,1,1,760,800,10.600758,1,0.8017867310671135
1778782983.740782,62924820,0,0.0025245761498808,0.0011053727939724,0.0014959250111132,-0.006301587447524,0.0035374308936297,-10.864008903503418,0,0,28.680419921875,1,1,1000,1000,10.640742,1,0.8014959250111132
1778782983.740782,62924820,1,0.0024512163363397,0.0009401906281709,0.0013475348241627,-0.007404672447592,0.004200383555144,-10.864740371704102,0,0,28.680419921875,1,1,760,800,10.640742,1,0.8013475348241628
1778782983.780766,62964804,0,-0.000486985896714,0.0011302360799163,0.0015497402055189,-0.0063127116300165,0.0041097467765212,-10.877899169921877,0,0,28.68259620666504,1,1,1000,1000,10.680726,1,0.801549740205519
1778782983.780766,62964804,1,-0.0005969471530988,0.0012054552789777,0.0015268169809132,-0.0074598677456378,0.0034196935594081,-10.877226829528809,0,0,28.68259620666504,1,1,760,800,10.680726,1,0.8015268169809132
1778782983.82075,63004788,0,-0.0003644133685156,0.0011397139169275,0.001602241769433,-0.0061046797782182,0.0041577983647584,-10.86015510559082,0,0,28.68477249145508,1,1,1000,1000,10.72071,1,0.8016022417694331
1778782983.82075,63004788,1,-0.0003297890070825,0.0010124747641384,0.0014461409300565,-0.0093984510749578,0.0016267512692138,-10.861133575439451,0,0,28.68477249145508,1,1,760,800,10.72071,1,0.8014461409300565
1778782983.860734,63044772,0,-0.0002405437699053,-0.0015525487251579,0.0015096931019797,-0.0065800650045275,0.0029716163408011,-10.87384796142578,0,0,28.686946868896484,1,1,1000,1000,10.760694,1,0.8015096931019797
1778782983.860734,63044772,1,-0.0001167601294582,-0.0015989248640835,0.0016038388712331,-0.0060645821504294,0.0059035378508269,-10.87269687652588,0,0,28.686946868896484,1,1,760,800,10.760694,1,0.8016038388712331
1778782983.900718,63084756,0,-0.0001026134414132,-0.0015850791241973,0.0014966300223022,-0.0043196268379688,0.0025308348704129,-10.85637664794922,0,0,28.68912124633789,1,1,1000,1000,10.800678,1,0.8014966300223022
1778782983.900718,63084756,1,-0.0002197124704252,-0.0016230884939432,0.001530839363113,-0.0073563833720982,0.0028373836539685,-10.85561752319336,0,0,28.68912124633789,1,1,760,800,10.800678,1,0.8015308393631131
1778782983.940702,63124740,0,-5.6772364587232e-07,0.0007475368329323,0.0016046923119574,-0.0052747749723494,0.003427013522014,-10.86274528503418,0,0,28.691295623779297,1,1,1000,1000,10.840662,1,0.8016046923119574
1778782983.940702,63124740,1,0.0001067098201019,0.0007510370924137,0.0015932228416204,-0.002956514712423,0.0025483614299446,-10.864493370056152,0,0,28.691295623779297,1,1,760,800,10.840662,1,0.8015932228416205
1778782983.980686,63164724,0,-0.0002545656752772,-0.0010527007980272,0.0017292582197114,-0.0054328804835677,0.0016641239635646,-10.798361778259276,0,0,28.693470001220703,1,1,1000,1000,10.880646,1,0.8017292582197114
1778782983.980686,63164724,1,-0.0002026794682024,-0.001028504455462,0.0018054450629279,-0.0022746650502085,0.0029063527472317,-10.798977851867676,0,0,28.693470001220703,1,1,760,800,10.880646,1,0.801805445062928
1778782984.02067,63204708,0,-0.0007847575470805,-0.0009870412759482,0.0016848095692694,-0.0053748595528304,0.0014427888672798,-10.695648193359377,0,0,28.69564437866211,1,1,1000,1000,10.92063,1,0.8016848095692695
1778782984.02067,63204708,1,-0.0007599698146805,-0.0009339342359453,0.0017459228402003,-0.005395334213972,0.0007737013511359,-10.696861267089844,0,0,28.69564437866211,1,1,760,800,10.92063,1,0.8017459228402003
1778782984.060654,63244692,0,-0.0015171758132055,-0.0001330851227976,0.0016508990665897,-0.0039250240661203,0.0005331456195563,-10.58829116821289,0,0,28.69781875610352,1,1,1000,1000,10.960614,1,0.8016508990665897
1778782984.060654,63244692,1,-0.0016148033319041,-0.000233343365835,0.0017514713108539,-0.0036813637707382,-0.0005243917694315,-10.589311599731444,0,0,28.69781875610352,1,1,760,800,10.960614,1,0.8017514713108539
1778782984.100638,63284676,0,-0.0022573296446353,0.0002671456313692,0.0015940619632601,-0.0040370626375079,0.0008697091834619,-10.49011516571045,0,0,28.69999122619629,1,1,1000,1000,11.000598,1,0.8015940619632601
1778782984.100638,63284676,1,-0.0021019235718995,0.0002069063484668,0.0015211275313049,-0.0035966159775853,0.0028812263626605,-10.489577293395996,0,0,28.69999122619629,1,1,760,800,11.000598,1,0.801521127531305
1778782984.140622,63324660,0,-0.0018777977675199,0.0003573421854525,0.0015651546418666,-0.0030011893250048,0.0009987140074372,-10.400152206420898,0,0,28.70216560363769,1,1,1000,1000,11.040582,1,0.8015651546418666
1778782984.140622,63324660,1,-0.0018705634865909,0.000427707680501,0.0014471353497356,-0.0051511214114725,0.0007871726411394,-10.401832580566406,0,0,28.70216560363769,1,1,760,800,11.040582,1,0.8014471353497357
1778782984.180606,63364644,0,-0.002530388534069,-0.0005163341411389,0.0014423227403312,-0.0034324438311159,-0.0006171449786052,-10.316950798034668,0,0,28.70433807373047,1,1,1000,1000,11.080566,1,0.8014423227403312
1778782984.180606,63364644,1,-0.0025832916144281,-0.0005446714349091,0.0014745824737474,-0.0040963683277368,-0.0028025947976857,-10.316129684448242,0,0,28.70433807373047,1,1,760,800,11.080566,1,0.8014745824737475
1778782984.22059,63404628,0,-0.0038996094372123,-0.0003487807698547,0.0013578552752733,-0.0016890092520043,3.179448685841635e-05,-10.240299224853516,0,0,28.70651054382324,1,1,1000,1000,11.12055,1,0.8013578552752734
1778782984.22059,63404628,1,-0.0039073410443961,-0.0002873868215829,0.0015560993924736,-0.003131435252726,0.0006865193136036,-10.237950325012209,0,0,28.70651054382324,1,1,760,800,11.12055,1,0.8015560993924736
1778782984.260574,63444612,0,-0.0034174434840679,-0.0011081504635512,0.0013099975185468,-0.0019160916563123,-0.0005942527204751,-10.166491508483888,0,0,28.708683013916016,1,1,1000,1000,11.160534,1,0.8013099975185468
1778782984.260574,63444612,1,-0.0034297194797545,-0.0010034145088866,0.0013933663722127,-0.0033892020583152,-0.0003785447624977,-10.170269012451172,0,0,28.708683013916016,1,1,760,800,11.160534,1,0.8013933663722127
1778782984.300558,63484596,0,-0.0031795578543096,-0.0010494206799194,0.0012472646776586,-0.0023082834668457,-0.0012217827606946,-10.10673713684082,0,0,28.71085548400879,1,1,1000,1000,11.200518,1,0.8012472646776586
1778782984.300558,63484596,1,-0.0031118295155465,-0.0011367236729711,0.0012857196852564,-0.0017647773493081,-0.0007802337058819,-10.10590648651123,0,0,28.71085548400879,1,1,760,800,11.200518,1,0.8012857196852564
1778782984.340542,63524580,0,-0.0027230402920395,-0.0017830666620284,0.0012235876638442,-0.0016424014465883,-0.00148291955702,-10.048102378845217,0,0,28.71302795410156,1,1,1000,1000,11.240502,1,0.8012235876638443
1778782984.340542,63524580,1,-0.0027707836125046,-0.001819894881919,0.0013895503943786,-0.0034488844685256,-0.0001161825202871,-10.046725273132324,0,0,28.71302795410156,1,1,760,800,11.240502,1,0.8013895503943786
1778782984.380526,63564564,0,-0.0030643194913864,-0.0009002858423627,0.0011232815450057,-0.0011719104368239,-0.0014032812323421,-10.000507354736328,0,0,28.715198516845703,1,1,1000,1000,11.280486,1,0.8011232815450058
1778782984.380526,63564564,1,-0.0030602177139371,-0.0008491307962685,0.0010257253888994,-0.0029440920334309,0.0002141115255653,-10.00326156616211,0,0,28.715198516845703,1,1,760,800,11.280486,1,0.8010257253888995
1778782984.42051,63604548,0,-0.0032350486144423,-0.0017853087047114,0.0010466747917234,-0.0003681876696646,-0.0032455860637128,-9.951818466186523,0,0,28.717369079589844,1,1,1000,1000,11.32047,1,0.8010466747917234
1778782984.42051,63604548,1,-0.0032514000777155,-0.0019044065847992,0.0010355983395129,0.0020789813715964,-0.0005552078364416,-9.952476501464844,0,0,28.717369079589844,1,1,760,800,11.32047,1,0.801035598339513
1778782984.460494,63644532,0,-0.0024899370037019,-0.003963294904679,0.0009346611914224,0.0004340367740951,-0.0028715855441987,-9.906328201293944,0,0,28.719541549682617,1,1,1000,1000,11.360454,1,0.8009346611914224
1778782984.460494,63644532,1,-0.0025999820791184,-0.0038771820254623,0.000970511639025,-0.0022734864614903,-0.003053197171539,-9.907730102539062,0,0,28.719541549682617,1,1,760,800,11.360454,1,0.800970511639025
1778782984.500478,63684516,0,-0.0038772418629378,-0.0009667785489,0.000833296100609,-0.001325111137703,-0.0022816658020019,-9.873438835144045,0,0,28.721710205078125,1,1,1000,1000,11.400438,1,0.800833296100609
