timestamp,TimeUS,I,GyrX,GyrY,GyrZ,AccX,AccY,AccZ,EG,EA,T,GH,AH,GHz,AHz
1778785729.89920688,71084055,0,0.001009071245789528,0.0009509260999038815,0.0010454015573486686,-0.0012046624906361103,-0.0013208541786298156,-9.818868637084961,0,0,29.118330001831055,1,1,1000,1000
1778785729.89920688,71084055,1,0.0007786449859850109,0.0008829786675050855,0.0011144919553771615,-0.0010682875290513039,-0.001205358887091279,-9.818501472473145,0,0,29.11827850341797,1,1,760,800
1778785729.93919086,71124039,0,0.0010471893474459648,0.0009929533116519451,0.000990390544757247,-0.0013434009160846472,-0.0002280321641592309,-9.818078994750977,0,0,29.120447158813477,1,1,1000,1000
1778785729.93919086,71124039,1,0.0012745297281071544,0.0010745726758614182,0.0011561547871679068,-0.0006269369041547179,-0.002516715321689844,-9.815818786621094,0,0,29.120393753051758,1,1,760,800
1778785729.97917485,71164023,0,0.001065688207745552,0.0010040536290034652,0.000987395760603249,-0.0017343164654448628,-0.0012900936417281628,-9.818352699279785,0,0,29.1225643157959,1,1,1000,1000
1778785729.97917485,71164023,1,0.0011783709051087499,0.0011337511241436005,0.00123748613987118,-0.0023283965419977903,0.0003197448677383363,-9.817682266235352,0,0,29.12251091003418,1,1,760,800
1778785730.01999187,71204840,0,0.0010453348513692617,0.000995494658127427,0.0010196188231930137,-0.001115932478569448,-0.00030700070783495903,-9.816993713378906,0,0,29.12468147277832,1,1,1000,1000
1778785730.01999187,71204840,1,0.0007887027459219098,0.0008882888359948993,0.0011911893961951137,0.002444181125611067,-0.000655599869787693,-9.816713333129883,0,0,29.12468147277832,1,1,760,800
1778785730.05997586,71244824,0,0.0010513811139389873,0.0010844056960195303,0.0009857125114649534,-0.0022637287620455027,-0.0004593065823428333,-9.816749572753906,0,0,29.12679672241211,1,1,1000,1000
1778785730.05997586,71244824,1,0.0009741971152834594,0.0010941168293356895,0.0009154576109722257,-0.002416596282273531,-0.0019437584560364485,-9.816041946411133,0,0,29.12679672241211,1,1,760,800
1778785730.09995985,71284808,0,0.0009896688861772418,0.0009502468165010214,0.0010239639086648822,-0.0022692398633807898,-0.0021139131858944893,-9.818608283996582,0,0,29.12891387939453,1,1,1000,1000
1778785730.09995985,71284808,1,0.0010639645624905825,0.0010350898373872042,0.0010123817482963204,-0.0008606815827079117,0.00021756987553089857,-9.81680965423584,0,0,29.12891387939453,1,1,760,800
1778785730.13994384,71324792,0,0.0009874097304418683,0.001008888822980225,0.000993262161500752,-0.0009257699130102992,-0.00026456094929017127,-9.816102981567383,0,0,29.131031036376953,1,1,1000,1000
1778785730.13994384,71324792,1,0.0010217365343123674,0.0009846973698586226,0.0010411444818601012,-0.0025098929181694984,-0.0016760777216404676,-9.816109657287598,0,0,29.131031036376953,1,1,760,800
1778785730.17992783,71364776,0,0.001005830941721797,0.0010431540431454778,0.0010039204498752952,-0.0011588000925257802,-0.0007655640365555882,-9.81706428527832,0,0,29.133146286010742,1,1,1000,1000
1778785730.17992783,71364776,1,0.0009248058777302504,0.0010235669324174523,0.0010049936827272177,-0.0026020121295005083,-0.0007754341932013631,-9.815725326538086,0,0,29.133146286010742,1,1,760,800
1778785730.21991181,71404760,0,0.0010668328031897545,0.0010426617227494717,0.0009773997589945793,-0.0012350397882983088,-0.0002564967726357281,-9.816308975219727,0,0,29.13526153564453,1,1,1000,1000
1778785730.21991181,71404760,1,0.0008805012330412865,0.0008975389646366239,0.0008825003169476986,-7.183891284512356e-05,-0.001384650357067585,-9.818187713623047,0,0,29.13526153564453,1,1,760,800
1778785730.25989604,71444744,0,0.0009971170220524073,0.0010079307248815894,0.0009948688093572855,-0.0016825690399855375,-0.00045239919563755393,-9.817102432250977,0,0,29.13737678527832,1,1,1000,1000
1778785730.25989604,71444744,1,0.0007535484619438648,0.0008849838050082326,0.0013671871274709702,-0.002210256177932024,0.0010081033688038588,-9.81946086883545,0,0,29.13737678527832,1,1,760,800
1778785730.29988003,71484728,0,0.0009484565234743059,0.0009517223807051778,0.0009641959914006293,-0.0009006334003061056,-0.0004361647297628224,-9.818422317504883,0,0,29.13949203491211,1,1,1000,1000
1778785730.29988003,71484728,1,0.0009563901112414896,0.0009896531701087952,0.0009405673481523991,4.278754204278812e-05,-0.0005251223919913173,-9.818140983581543,0,0,29.13949203491211,1,1,760,800
1778785730.33986402,71524712,0,0.0010416728910058737,0.0009987723315134645,0.0010444866493344307,-0.0009373505017720163,-0.0004918727790936828,-9.816542625427246,0,0,29.141605377197266,1,1,1000,1000
1778785730.33986402,71524712,1,0.0008211858803406358,0.0008781144279055297,0.0009457950945943594,-0.0018141911132261157,-0.001268997904844582,-9.82095718383789,0,0,29.141605377197266,1,1,760,800
1778785730.37984800,71564696,0,0.0009301770478487015,0.0010155488271266222,0.0011071464978158474,-0.0006532419356517494,-0.00039107707561925054,-9.817618370056152,0,0,29.143720626831055,1,1,1000,1000
1778785730.37984800,71564696,1,0.000979108503088355,0.0009173818398267031,0.0010070216376334429,-0.0009034790564328432,-0.00389881688170135,-9.818017959594727,0,0,29.143720626831055,1,1,760,800
1778785730.41983199,71604680,0,0.0010093817254528403,0.0009678039932623506,0.0009991666302084923,-0.0013529709540307522,-0.0008162150043062866,-9.817392349243164,0,0,29.14583396911621,1,1,1000,1000
1778785730.41983199,71604680,1,0.0008807111298665404,0.0008810863364487886,0.0011320402845740318,-0.002623226959258318,-0.0011382387019693851,-9.817253112792969,0,0,29.14583396911621,1,1,760,800
1778785730.45981598,71644664,0,0.001003323937766254,0.001049903454259038,0.0010729702189564705,-0.0005531618953682482,-0.0012967870570719242,-9.817606925964355,0,0,29.14794921875,1,1,1000,1000
1778785730.45981598,71644664,1,0.000998235889710486,0.0011206886265426874,0.000988104147836566,-0.00024416905944235623,-0.0033460999839007854,-9.820394515991211,0,0,29.14794921875,1,1,760,800
1778785730.49979997,71684648,0,0.001009008614346385,0.0009399205446243286,0.0009876283584162593,-0.0006561866612173617,-0.0017057966906577349,-9.818910598754883,0,0,29.150062561035156,1,1,1000,1000
1778785730.49979997,71684648,1,0.0009693230967968702,0.0010574404150247574,0.0008330940036103129,-0.0037757540121674538,0.0006949998787604272,-9.816906929016113,0,0,29.150062561035156,1,1,760,800
1778785730.53978395,71724632,0,0.0010611183242872357,0.0011057128431275487,0.0010122698731720448,0.00012739436351694167,-0.0009775222279131413,-9.816672325134277,0,0,29.152175903320312,1,1,1000,1000
1778785730.53978395,71724632,1,0.0008165681501850486,0.001026395708322525,0.001295916736125946,-0.001544687314890325,-0.0011383213568478823,-9.817630767822266,0,0,29.152175903320312,1,1,760,800
1778785730.57976794,71764616,0,0.0008866262505762279,0.0009594367584213614,0.001045841258019209,-0.002168915932998061,-0.0009721817914396524,-9.817861557006836,0,0,29.154287338256836,1,1,1000,1000
1778785730.57976794,71764616,1,0.0010960050858557224,0.0010739200515672565,0.0010160863166674972,-0.0023038641083985567,-0.0014306813245639205,-9.818792343139648,0,0,29.154287338256836,1,1,760,800
1778785730.61975193,71804600,0,0.0010104663670063019,0.0009891202207654715,0.0010039056651294231,-0.0021535158157348633,-0.00019908329704776406,-9.817282676696777,0,0,29.156400680541992,1,1,1000,1000
1778785730.61975193,71804600,1,0.0007885413942858577,0.0011131990468129516,0.0010673715732991695,-0.0012889985227957368,-0.0007095073233358562,-9.817169189453125,0,0,29.156400680541992,1,1,760,800
1778785730.65973592,71844584,0,0.001018294133245945,0.0010250979103147984,0.0010701577411964536,-0.0009023420279845595,0.0003853339876513928,-9.81796646118164,0,0,29.158512115478516,1,1,1000,1000
1778785730.65973592,71844584,1,0.0008713335264474154,0.0009682544623501599,0.0009833272779360414,-0.0023265182971954346,-0.001661735586822033,-9.817458152770996,0,0,29.158512115478516,1,1,760,800
1778785730.69971991,71884568,0,0.0010576267959550023,0.000977052259258926,0.000992501387372613,-0.0023724765051156282,-0.001690068980678916,-9.816301345825195,0,0,29.160625457763672,1,1,1000,1000
1778785730.69971991,71884568,1,0.0009456701809540391,0.001158249331638217,0.0011920466786250472,-0.0002013601188082248,-0.0021962039172649384,-9.817245483398438,0,0,29.160625457763672,1,1,760,800
1778785730.73970389,71924552,0,0.0010237933602184057,0.0010617051739245653,0.0010053213918581605,-0.0005750731215812266,-0.001589677995070815,-9.816997528076172,0,0,29.162736892700195,1,1,1000,1000
1778785730.73970389,71924552,1,0.0010371441021561623,0.0009223268134519458,0.0009261587983928621,-0.0013824435882270336,0.00014062225818634033,-9.81746768951416,0,0,29.162736892700195,1,1,760,800
1778785730.77968788,71964536,0,0.0010275165550410748,0.0010086323600262403,0.0009871067013591528,7.009296678006649e-05,-0.0005191924283280969,-9.818275451660156,0,0,29.16484832763672,1,1,1000,1000
1778785730.77968788,71964536,1,0.001162286614999175,0.0010624508140608668,0.0009919994045048952,-0.0004889711271971464,-0.00372128514572978,-9.81640338897705,0,0,29.16484832763672,1,1,760,800
1778785730.81967187,72004520,0,0.0010761646553874016,0.0010147554567083716,0.0010089094284921885,-0.00022234108473639935,-0.0004777158028446138,-9.816996574401855,0,0,29.166959762573242,1,1,1000,1000
1778785730.81967187,72004520,1,0.0009661127696745098,0.000959759287070483,0.0011503847781568766,-0.002040139166638255,-0.0008759789634495974,-9.81574821472168,0,0,29.166959762573242,1,1,760,800
1778785730.85965586,72044504,0,0.0010568407597020268,0.0010026306845247746,0.0009668667335063219,-0.0009067313512787223,-0.0003798810357693583,-9.818435668945312,0,0,29.169071197509766,1,1,1000,1000
1778785730.85965586,72044504,1,0.0010347553761675954,0.0009731731843203306,0.001136087579652667,-0.00138077512383461,-0.0028888152446597815,-9.815546035766602,0,0,29.169071197509766,1,1,760,800
1778785730.89963984,72084488,0,0.001038950402289629,0.0010063850786536932,0.0009805778972804546,-5.8180656196782365e-05,-0.0004124859697185457,-9.81833267211914,0,0,29.171180725097656,1,1,1000,1000
1778785730.89963984,72084488,1,0.0008711822447367013,0.0010283663868904114,0.0012337147491052747,-0.0005410516750998795,-0.00131955835968256,-9.818567276000977,0,0,29.171180725097656,1,1,760,800
1778785730.93962383,72124472,0,0.000996345654129982,0.0009932182729244232,0.0010277178371325135,-0.0009127446683123708,-0.0010512153385207057,-9.818178176879883,0,0,29.17329216003418,1,1,1000,1000
1778785730.93962383,72124472,1,0.0012480339501053095,0.0009131660917773843,0.0011851206654682755,-0.0003544241772033274,-0.0008110353373922408,-9.817779541015625,0,0,29.17329216003418,1,1,760,800
1778785730.97960782,72164456,0,0.0010565733537077904,0.0010517181362956762,0.0010128567228093743,-0.0018420343985781074,-0.00016749955830164254,-9.818565368652344,0,0,29.17540168762207,1,1,1000,1000
1778785730.97960782,72164456,1,0.0011189458891749382,0.0010148793226107955,0.0009999184403568506,-0.0010280376300215721,-0.0032335533760488033,-9.81492805480957,0,0,29.17540168762207,1,1,760,800
1778785731.01959205,72204440,0,0.001045533106662333,0.0010236361995339394,0.0010845789220184088,-0.0011259402381256223,-0.0018607790116220713,-9.816255569458008,0,0,29.17751121520996,1,1,1000,1000
1778785731.01959205,72204440,1,0.0007159874076023698,0.0009368857135996222,0.0010741270380094647,-0.00013297444093041122,-0.002937580458819866,-9.818205833435059,0,0,29.17751121520996,1,1,760,800
1778785731.05957603,72244424,0,0.0010807779617607594,0.0010019526816904545,0.0009131322149187326,-0.0003155797894578427,-0.001770723843947053,-9.816570281982422,0,0,29.17962074279785,1,1,1000,1000
1778785731.05957603,72244424,1,0.0011642880272120237,0.0010140070226043463,0.0006532726110890508,-0.0008784743258729577,-0.0009140088804997504,-9.816737174987793,0,0,29.17962074279785,1,1,760,800
1778785731.09956002,72284408,0,0.0010254803346469998,0.0011196811683475971,0.0010133974719792604,-0.0008376673795282841,-0.00044776577851735055,-9.818099021911621,0,0,29.18172836303711,1,1,1000,1000
1778785731.09956002,72284408,1,0.0010496017057448626,0.0011556835379451513,0.001194408512674272,-0.0012395191006362438,-0.0015237771440297365,-9.818058013916016,0,0,29.18172836303711,1,1,760,800
1778785731.13954401,72324392,0,0.0010729011846706271,0.0010432039853185415,0.0010827368823811412,-0.00265313358977437,-0.0006900517037138343,-9.817501068115234,0,0,29.183839797973633,1,1,1000,1000
1778785731.13954401,72324392,1,0.0010912803700193763,0.0010903497459366918,0.0010168589651584625,0.0016368483193218708,0.0007729436620138586,-9.819509506225586,0,0,29.183839797973633,1,1,760,800
1778785731.17952800,72364376,0,0.0009915137197822332,0.001042112591676414,0.0009737773216329515,-0.0016495094168931246,-0.0018621517810970545,-9.817293167114258,0,0,29.18594741821289,1,1,1000,1000
1778785731.17952800,72364376,1,0.001322953961789608,0.0011444403789937496,0.000830155098810792,-0.0016419549938291311,0.00011191132216481492,-9.818704605102539,0,0,29.18594741821289,1,1,760,800
1778785731.21951199,72404360,0,0.0009273147443309426,0.0010916870087385178,0.0010581410024315119,-0.001197868143208325,-0.00023012432211544365,-9.81747817993164,0,0,29.18805694580078,1,1,1000,1000
1778785731.21951199,72404360,1,0.001092727528885007,0.001106377225369215,0.001005289377644658,-0.0011183505412191153,-0.0006868915515951812,-9.817425727844238,0,0,29.18805694580078,1,1,760,800
1778785731.25949597,72444344,0,0.0010296870023012161,0.0010417974554002285,0.001052433392032981,-0.000988595886155963,-0.001829908462241292,-9.817736625671387,0,0,29.19016456604004,1,1,1000,1000
1778785731.25949597,72444344,1,0.001131952740252018,0.0011331660207360983,0.001009355764836073,-3.326204023323953e-06,-0.001897146925330162,-9.818758964538574,0,0,29.19016456604004,1,1,760,800
1778785731.29947996,72484328,0,0.0010124334366992116,0.0010604634881019592,0.0010059381602331996,-0.0010998707730323076,-0.001149868592619896,-9.818473815917969,0,0,29.192272186279297,1,1,1000,1000
1778785731.29947996,72484328,1,0.0010065400274470448,0.0008630768861621618,0.0010101988445967436,-0.0038689072243869305,-0.001975663471966982,-9.815507888793945,0,0,29.192272186279297,1,1,760,800
1778785731.33946395,72524312,0,0.0009670810541138053,0.0009944658959284425,0.0010108522837981582,0.0002840595261659473,-0.0007923410157673061,-9.816481590270996,0,0,29.194379806518555,1,1,1000,1000
1778785731.33946395,72524312,1,0.0010107497218996286,0.001064090640284121,0.0011211474193260074,3.8280453736661e-05,0.0004988596774637699,-9.818472862243652,0,0,29.194379806518555,1,1,760,800
1778785731.37944794,72564296,0,0.0010058028856292367,0.000966944673564285,0.0010574625339359045,-0.0012153818970546126,-0.0007903894293121994,-9.818330764770508,0,0,29.196487426757812,1,1,1000,1000
1778785731.37944794,72564296,1,0.0009016235126182437,0.0009184021037071943,0.0008975451346486807,0.0019446088699623942,-4.104485924472101e-06,-9.818137168884277,0,0,29.196487426757812,1,1,760,800
1778785731.41943192,72604280,0,0.0009423966403119266,0.001128469011746347,0.0010858576279133558,-0.0006165640079416335,-0.0010635324288159609,-9.817774772644043,0,0,29.198593139648438,1,1,1000,1000
1778785731.41943192,72604280,1,0.0008299548644572496,0.000872335396707058,0.001107336487621069,-0.0012389400508254766,-0.0014853801112622023,-9.817930221557617,0,0,29.198593139648438,1,1,760,800
1778785731.45941591,72644264,0,0.0010669762268662453,0.0010544219985604286,0.0009870624635368586,-0.00034864721237681806,-0.000314067438011989,-9.817864418029785,0,0,29.200700759887695,1,1,1000,1000
1778785731.45941591,72644264,1,0.0011368755949661136,0.0010277749970555305,0.0010451702401041985,-0.0024775273632258177,-0.003041364485397935,-9.817602157592773,0,0,29.200700759887695,1,1,760,800
1778785731.49939990,72684248,0,0.0010166768915951252,0.001033475622534752,0.0011499912943691015,-0.0008694324060343206,-0.001370286918245256,-9.817131996154785,0,0,29.20280647277832,1,1,1000,1000
1778785731.49939990,72684248,1,0.0012119500897824764,0.0009895004332065582,0.000808793178293854,-0.0028867973014712334,0.0002855049096979201,-9.819931983947754,0,0,29.20280647277832,1,1,760,800
1778785731.53938389,72724232,0,0.0010697273537516594,0.0010126694105565548,0.0009945683414116502,-0.0012942443136125803,-0.000550213095266372,-9.81791877746582,0,0,29.20486068725586,1,1,1000,1000
1778785731.53938389,72724232,1,0.0010541330557316542,0.0009314113412983716,0.001024971017614007,-0.002957140328362584,-0.002960849553346634,-9.820844650268555,0,0,29.20486068725586,1,1,760,800
1778785731.57936788,72764216,0,0.0010911327553912997,0.0010296980617567897,0.0010374796111136675,-0.0005929238395765424,-0.001258109463378787,-9.816410064697266,0,0,29.206966400146484,1,1,1000,1000
1778785731.57936788,72764216,1,0.0008029649034142494,0.0010283326264470816,0.0008702845079824328,0.0020779047627002,0.0003193877055309713,-9.817916870117188,0,0,29.206966400146484,1,1,760,800
1778785731.61935186,72804200,0,0.00105962622910738,0.0010836225701496005,0.0010308177443221211,-0.002019537379965186,-0.0009600714547559619,-9.816699981689453,0,0,29.20907211303711,1,1,1000,1000
1778785731.61935186,72804200,1,0.0011649252846837044,0.0010065790265798569,0.0010675591183826327,-0.0013560683000832796,0.0005585397593677044,-9.816272735595703,0,0,29.20907211303711,1,1,760,800
1778785731.65933585,72844184,0,0.0010127584682777524,0.0009663557866588235,0.0010471879504621029,9.485648479312658e-05,-0.0011680283350870013,-9.817312240600586,0,0,29.211177825927734,1,1,1000,1000
1778785731.65933585,72844184,1,0.0008708937093615532,0.0009932703105732799,0.0009705083211883903,-0.00028154230676591396,-0.001642590039409697,-9.818309783935547,0,0,29.211177825927734,1,1,760,800
1778785731.69931984,72884168,0,0.0009744312264956534,0.0010111393639817834,0.0010311376536265016,-0.0017961002886295319,-0.0012530888197943568,-9.816736221313477,0,0,29.213281631469727,1,1,1000,1000
1778785731.69931984,72884168,1,0.000897261023055762,0.0011252271942794323,0.0009838364785537124,-0.00356903113424778,-0.002119520679116249,-9.81986141204834,0,0,29.213281631469727,1,1,760,800
1778785731.73930383,72924152,0,0.0011398685164749622,0.0010774453403428197,0.0010696898680180311,-0.0009296051575802267,-0.0013625812716782093,-9.81712532043457,0,0,29.21538734436035,1,1,1000,1000
1778785731.73930383,72924152,1,0.0012712939642369747,0.0010324643226340413,0.0010639913380146027,-0.00010480797209311277,-0.0024040513671934605,-9.816600799560547,0,0,29.21538734436035,1,1,760,800
1778785731.77928782,72964136,0,0.0010688983602449298,0.001105038681998849,0.0010177710792049766,-0.0004092855378985405,-0.001074061612598598,-9.81773853302002,0,0,29.217491149902344,1,1,1000,1000
1778785731.77928782,72964136,1,0.0011282101040706038,0.0008586514741182327,0.001300425617955625,-0.003930083941668272,-0.0009503084002062678,-9.818614959716797,0,0,29.217491149902344,1,1,760,800
1778785731.81927204,73004120,0,0.0009919947478920221,0.001097594853490591,0.0010209903120994568,-0.00048383360262960196,-5.704027717001736e-05,-9.816332817077637,0,0,29.21959686279297,1,1,1000,1000
1778785731.81927204,73004120,1,0.0010660522384569049,0.0009350617765448987,0.001107255695387721,0.0005459497915580869,-0.0009053736575879157,-9.818044662475586,0,0,29.21959686279297,1,1,760,800
1778785731.85925603,73044104,0,0.0009931086096912622,0.0010190749308094382,0.0010245752055197954,-0.0006315693026408553,-0.0016226943116635084,-9.818265914916992,0,0,29.221698760986328,1,1,1000,1000
1778785731.85925603,73044104,1,0.001065241638571024,0.0011417291825637221,0.000857429695315659,-0.0034003350883722305,0.00025162583915516734,-9.818406105041504,0,0,29.221698760986328,1,1,760,800
1778785731.89924002,73084088,0,0.0010530980071052909,0.001044050557538867,0.0010259042028337717,-0.0005394731415435672,6.788976315874606e-05,-9.817217826843262,0,0,29.223804473876953,1,1,1000,1000
1778785731.89924002,73084088,1,0.000908271933440119,0.000941215199418366,0.0008261463954113424,-0.0017693920526653528,0.00034778050030581653,-9.815836906433105,0,0,29.223804473876953,1,1,760,800
1778785731.93922400,73124072,0,0.001094425213523209,0.0010229202453047037,0.0010621617548167706,-0.0006043106550350785,-0.0001396353472955525,-9.816505432128906,0,0,29.225906372070312,1,1,1000,1000
1778785731.93922400,73124072,1,0.0011087567545473576,0.0010588662698864937,0.0009524916531518102,-0.0023634429089725018,-0.001754242810420692,-9.818906784057617,0,0,29.225906372070312,1,1,760,800
1778785731.97920799,73164056,0,0.0010029864497482777,0.001113000325858593,0.0010518708731979132,-0.0007791953976266086,-0.0003567470412235707,-9.81737232208252,0,0,29.22806167602539,1,1,1000,1000
1778785731.97920799,73164056,1,0.0010327277705073357,0.0008709382964298129,0.0009210575371980667,-0.0007900053751654923,-0.002984056482091546,-9.818352699279785,0,0,29.228010177612305,1,1,760,800
1778785732.01919198,73204040,0,0.0011019265512004495,0.0010606455616652966,0.001030430430546403,-0.0013370587257668376,-0.0009758577216416597,-9.818082809448242,0,0,29.230165481567383,1,1,1000,1000
1778785732.01919198,73204040,1,0.0011921926634386182,0.0009761099936440587,0.0010286520700901747,-0.0011549724731594324,-0.0019804348703473806,-9.818242073059082,0,0,29.230113983154297,1,1,760,800
1778785732.05917597,73244024,0,0.0010372914839535952,0.0010357355931773782,0.0010869796387851238,-0.0016818935982882977,-0.0007034454611130059,-9.817850112915039,0,0,29.232267379760742,1,1,1000,1000
1778785732.05917597,73244024,1,0.0007231290801428258,0.0012760864337906241,0.0012465004110708833,-0.0023560908157378435,0.0001461385254515335,-9.816980361938477,0,0,29.232215881347656,1,1,760,800
1778785732.09999299,73284841,0,0.0010119456565007567,0.0009818506659939885,0.0009753603953868151,-1.498800702393055e-05,-0.0014134219381958246,-9.817731857299805,0,0,29.234371185302734,1,1,1000,1000
1778785732.09999299,73284841,1,0.0010839705355465412,0.0009190740529447794,0.0011925119906663895,-0.002679449040442705,-0.0008865989511832595,-9.818262100219727,0,0,29.234371185302734,1,1,760,800
1778785732.13997698,73324825,0,0.0010876657906919718,0.0010389434173703194,0.0010465281084179878,-0.0011923409765586257,-0.0005872977199032903,-9.81888484954834,0,0,29.23647117614746,1,1,1000,1000
1778785732.13997698,73324825,1,0.0008279327303171158,0.001066712662577629,0.0011985846795141697,-0.0024626636877655983,-0.0009996893350034952,-9.817716598510742,0,0,29.23647117614746,1,1,760,800
1778785732.17996097,73364809,0,0.000984033802524209,0.0009647059487178922,0.0009488302166573703,-0.001001891796477139,-0.0002747022081166506,-9.818509101867676,0,0,29.23857307434082,1,1,1000,1000
1778785732.17996097,73364809,1,0.0009840091224759817,0.0010262717260047793,0.0013136349152773619,0.0012189361732453108,8.824032556731254e-05,-9.81808853149414,0,0,29.23857307434082,1,1,760,800
1778785732.21994495,73404793,0,0.0009411063510924578,0.0010753960814327002,0.0011142288567498326,-0.0009376637171953917,-0.00076817482477054,-9.817230224609375,0,0,29.24067497253418,1,1,1000,1000
1778785732.21994495,73404793,1,0.0007570706075057387,0.0012023577000945807,0.0010507602710276842,0.0022092838771641254,-0.0028654374182224274,-9.816583633422852,0,0,29.24067497253418,1,1,760,800
1778785732.25992894,73444777,0,0.0010030893608927727,0.0009957385482266545,0.0009982874616980553,-0.0022542139049619436,-0.000870509073138237,-9.818422317504883,0,0,29.24277687072754,1,1,1000,1000
1778785732.25992894,73444777,1,0.0007183306152001023,0.0009919041767716408,0.0011547228787094355,0.0003077019937336445,0.00143350416328758,-9.818297386169434,0,0,29.24277687072754,1,1,760,800
1778785732.29991293,73484761,0,0.0010280897840857506,0.0010066309478133917,0.0010306329932063818,0.0002430404128972441,-0.0006832090439274907,-9.81756591796875,0,0,29.244876861572266,1,1,1000,1000
1778785732.29991293,73484761,1,0.0007671164348721504,0.001216432428918779,0.0010537595953792334,-0.00019203932606615126,-0.00045770357246510684,-9.816593170166016,0,0,29.244876861572266,1,1,760,800
1778785732.33989692,73524745,0,0.0010416507720947266,0.0010035827290266752,0.001038362504914403,-0.0006503794575110078,-0.001509196124970913,-9.817034721374512,0,0,29.246978759765625,1,1,1000,1000
1778785732.33989692,73524745,1,0.0010372591204941273,0.0010429669637233019,0.0007769401418045163,-0.004713602364063263,-0.00022107906988821924,-9.816049575805664,0,0,29.246978759765625,1,1,760,800
1778785732.37988091,73564729,0,0.0010835163993760943,0.001029773848131299,0.0010446145897731185,0.00011690458632074296,-0.001508483779616654,-9.816786766052246,0,0,29.24907684326172,1,1,1000,1000
1778785732.37988091,73564729,1,0.0008123989100567997,0.0009264867985621095,0.001038161339238286,-0.0004110719310119748,-0.0023911655880510807,-9.815572738647461,0,0,29.24907684326172,1,1,760,800
1778785732.41986489,73604713,0,0.001009643543511629,0.0010294229723513126,0.0010904818773269653,-0.0020354881417006254,-0.0007989847799763083,-9.817282676696777,0,0,29.251176834106445,1,1,1000,1000
1778785732.41986489,73604713,1,0.0009781329426914454,0.000956845295149833,0.0013206772273406386,-0.002673476468771696,-0.0015116364229470491,-9.819361686706543,0,0,29.251176834106445,1,1,760,800
1778785732.45984888,73644697,0,0.0010503048542886972,0.0010575337801128626,0.0010370645904913545,-0.0016884820070117712,-0.000979683012701571,-9.816886901855469,0,0,29.253276824951172,1,1,1000,1000
1778785732.45984888,73644697,1,0.0012862917501479387,0.0010747812921181321,0.0010475765448063612,0.00019265168521087617,0.0007062404183670878,-9.820446014404297,0,0,29.253276824951172,1,1,760,800
1778785732.49983287,73684681,0,0.0010666160378605127,0.0010841074399650097,0.0010416838340461254,-0.000437774695456028,-0.00017934830975718796,-9.818185806274414,0,0,29.2553768157959,1,1,1000,1000
1778785732.49983287,73684681,1,0.0012950751697644591,0.0012368003372102976,0.0010031969286501408,-0.002830654848366976,0.0026695523411035538,-9.8208646774292,0,0,29.2553768157959,1,1,760,800
1778785732.53981686,73724665,0,0.001040483359247446,0.0010013743303716183,0.0010840962640941143,-0.0015992706175893545,-1.7404614482074976e-05,-9.818017959594727,0,0,29.257476806640625,1,1,1000,1000
1778785732.53981686,73724665,1,0.0010878108441829681,0.0012267830315977335,0.0009800373809412122,-0.001488738227635622,3.5098470107186586e-05,-9.817445755004883,0,0,29.257476806640625,1,1,760,800
1778785732.57980084,73764649,0,0.0010663914727047086,0.0010477507021278143,0.0010493909940123558,-0.0004935062024742365,-0.0019750334322452545,-9.81820297241211,0,0,29.25957489013672,1,1,1000,1000
1778785732.57980084,73764649,1,0.0010351325618103147,0.0008899771491996944,0.0009742427500896156,-0.0029698521830141544,0.0013258794788271189,-9.81922721862793,0,0,29.25957489013672,1,1,760,800
1778785732.61978483,73804633,0,0.0010312950471416116,0.0010159746743738651,0.0010930004063993692,-0.0009079666924662888,-0.000955238938331604,-9.817499160766602,0,0,29.261672973632812,1,1,1000,1000
1778785732.61978483,73804633,1,0.0004804584023077041,0.001023680903017521,0.0010980531806126237,-0.0024212643038481474,-0.0014287949306890368,-9.81560230255127,0,0,29.261672973632812,1,1,760,800
1778785732.65976882,73844617,0,0.00097325025126338,0.0010515566682443023,0.0010568376164883375,-0.0004933869931846857,-0.001121671637520194,-9.816731452941895,0,0,29.263771057128906,1,1,1000,1000
1778785732.65976882,73844617,1,0.0010935377795249224,0.0009424794116057456,0.0011753411963582039,-0.001963311340659857,0.00035793858114629984,-9.818583488464355,0,0,29.263771057128906,1,1,760,800
1778785732.69975305,73884601,0,0.0010647574672475457,0.0010162692051380873,0.0010674891527742147,-0.0011113514192402363,-0.0011124704033136368,-9.818685531616211,0,0,29.265869140625,1,1,1000,1000
1778785732.69975305,73884601,1,0.000971260538790375,0.0013129846192896366,0.0011907127918675542,-0.0013892303686589003,6.87198480591178e-05,-9.817813873291016,0,0,29.265869140625,1,1,760,800
1778785732.73973703,73924585,0,0.0010741341393440962,0.0010378111619502306,0.001044776989147067,-0.0015369136817753315,-0.0005932950880378485,-9.817363739013672,0,0,29.267967224121094,1,1,1000,1000
1778785732.73973703,73924585,1,0.001144683570601046,0.0010210229083895683,0.0008640337618999183,0.0004905707901343703,-0.0009602830396033823,-9.817615509033203,0,0,29.267967224121094,1,1,760,800
1778785732.77972102,73964569,0,0.0010258720722049475,0.0011108112521469593,0.0011293715797364712,-0.0014733769930899143,-0.000644660321995616,-9.818148612976074,0,0,29.270065307617188,1,1,1000,1000
1778785732.77972102,73964569,1,0.0010350360535085201,0.001146966591477394,0.0010501084616407752,-0.001833873800933361,0.0009146906668320298,-9.8157377243042,0,0,29.270065307617188,1,1,760,800
1778785732.81970501,74004553,0,0.001081894151866436,0.0010740883881226182,0.0010542292147874832,-0.0012441009748727083,0.00016014790162444115,-9.818207740783691,0,0,29.27216148376465,1,1,1000,1000
1778785732.81970501,74004553,1,0.0009145117364823818,0.0012730553280562162,0.0009579913457855582,0.00044981445535086095,-0.0016972715966403484,-9.816694259643555,0,0,29.27216148376465,1,1,760,800
1778785732.85968900,74044537,0,0.0010525721590965986,0.001033965265378356,0.0010536848567426205,-0.0012031486257910728,-0.0009399770060554147,-9.816862106323242,0,0,29.27425765991211,1,1,1000,1000
1778785732.85968900,74044537,1,0.0010754525428637862,0.0010763746686279774,0.0011349244741722941,-0.0019585685804486275,-0.002509457990527153,-9.81725025177002,0,0,29.27425765991211,1,1,760,800
1778785732.89967299,74084521,0,0.0011029249290004373,0.0011056135408580303,0.0010067217517644167,-0.0011788150295615196,-0.0001486246765125543,-9.817140579223633,0,0,29.276355743408203,1,1,1000,1000
1778785732.89967299,74084521,1,0.0009483277099207044,0.0008580626454204321,0.0012516252463683486,-0.001064159325323999,0.002057825680822134,-9.818936347961426,0,0,29.276355743408203,1,1,760,800
1778785732.93965697,74124505,0,0.0010181614197790623,0.0010319226421415806,0.0010995561024174094,-0.0020152118522673845,-0.0006658052443526685,-9.817535400390625,0,0,29.278451919555664,1,1,1000,1000
1778785732.93965697,74124505,1,0.0009453894454054534,0.001081733382306993,0.0011678849114105105,0.0011427935678511858,0.00048232401604764163,-9.820655822753906,0,0,29.278451919555664,1,1,760,800
1778785732.97964096,74164489,0,0.0010822908952832222,0.0011249784147366881,0.001052475767210126,-0.0006415657117031515,-0.0008678041631355882,-9.817513465881348,0,0,29.280548095703125,1,1,1000,1000
1778785732.97964096,74164489,1,0.0007387233199551702,0.0010779965668916702,0.0008852152968756855,-0.000731959065888077,-0.0009930692613124847,-9.818476676940918,0,0,29.280548095703125,1,1,760,800
1778785733.01962495,74204473,0,0.0010401970939710736,0.0010425001382827759,0.0009994411375373602,-0.0006994614377617836,-0.0008866212447173893,-9.817132949829102,0,0,29.282644271850586,1,1,1000,1000
1778785733.01962495,74204473,1,0.0008675941498950124,0.0012679556384682655,0.0008653121767565608,0.000543184345588088,-0.001460648374632001,-9.816522598266602,0,0,29.282644271850586,1,1,760,800
1778785733.05960894,74244457,0,0.0010076032485812902,0.0010295381071045995,0.0010554282926023006,-0.000395585666410625,-0.0015561699401587248,-9.816940307617188,0,0,29.284740447998047,1,1,1000,1000
1778785733.05960894,74244457,1,0.0011092836502939463,0.0012252063024789095,0.000981063931249082,-0.0015109062660485506,0.0023096222430467606,-9.816534042358398,0,0,29.284740447998047,1,1,760,800
1778785733.09959292,74284441,0,0.001075567677617073,0.0010321931913495064,0.0009842690778896213,-0.0010402537882328033,-0.0008697467856109142,-9.818122863769531,0,0,29.286834716796875,1,1,1000,1000
1778785733.09959292,74284441,1,0.0011814322788268328,0.001167595386505127,0.0011192591628059745,-0.0022285999730229378,0.00046131727867759764,-9.817041397094727,0,0,29.286834716796875,1,1,760,800
1778785733.13957691,74324425,0,0.0010933898156508803,0.0011646945495158434,0.0009924464393407106,0.00011862909013871104,-0.0013664946891367435,-9.817474365234375,0,0,29.288928985595703,1,1,1000,1000
1778785733.13957691,74324425,1,0.0009502893080934882,0.0010596392676234245,0.001208498957566917,-0.0026230935472995043,0.0018605849472805858,-9.818974494934082,0,0,29.288928985595703,1,1,760,800
1778785733.17956090,74364409,0,0.000984560465440154,0.0011044829152524471,0.0011675171554088593,-0.0006476342678070068,-0.0009216592297889292,-9.816497802734375,0,0,29.29102325439453,1,1,1000,1000
1778785733.17956090,74364409,1,0.001149384886957705,0.0010160908568650484,0.0011729910038411617,-0.00040651793824508786,-0.003629121696576476,-9.817925453186035,0,0,29.29102325439453,1,1,760,800
1778785733.21954489,74404393,0,0.0010525486432015896,0.000976252369582653,0.0010023846989497542,-3.1006973586045206e-05,-0.001094741397537291,-9.817737579345703,0,0,29.29311752319336,1,1,1000,1000
1778785733.21954489,74404393,1,0.0009804985020309687,0.0011406155535951257,0.0008822553791105747,-0.001655664062127471,-0.0009874376701191068,-9.816703796386719,0,0,29.29311752319336,1,1,760,800
1778785733.25952888,74444377,0,0.0010812066029757261,0.001140268286690116,0.0009844289161264896,-0.0009280447848141193,-0.0008338071056641638,-9.818486213684082,0,0,29.29521369934082,1,1,1000,1000
1778785733.25952888,74444377,1,0.0011025317944586277,0.0007614558562636375,0.0008638380095362663,-0.001917037065140903,-0.0016437324229627848,-9.818731307983398,0,0,29.29521369934082,1,1,760,800
1778785733.29951286,74484361,0,0.0010656070662662387,0.001029334613122046,0.001071798731572926,-0.0009153588907793164,-0.0010502366349101067,-9.818809509277344,0,0,29.297306060791016,1,1,1000,1000
1778785733.29951286,74484361,1,0.0011125425808131695,0.0014139394043013453,0.0009621466742828488,-0.001402713474817574,0.00013571495946962386,-9.817815780639648,0,0,29.297306060791016,1,1,760,800
1778785733.33949685,74524345,0,0.0010619339300319552,0.0010545041877776384,0.0010646488517522812,-0.001505462802015245,-0.0008590290672145784,-9.817814826965332,0,0,29.299400329589844,1,1,1000,1000
1778785733.33949685,74524345,1,0.000994353904388845,0.0010764217004179955,0.0008001683745533228,-0.0015630278503522277,-0.000911255250684917,-9.818204879760742,0,0,29.299400329589844,1,1,760,800
1778785733.37948084,74564329,0,0.0010650864569470286,0.0010223874123767018,0.0010692457435652614,-0.0013829621020704508,-0.0005403527757152915,-9.816970825195312,0,0,29.30149269104004,1,1,1000,1000
1778785733.37948084,74564329,1,0.000996408867649734,0.0010140134254470468,0.001101862988434732,-0.0032740773167461157,0.0003215590550098568,-9.816904067993164,0,0,29.30149269104004,1,1,760,800
1778785733.41946483,74604313,0,0.0010403895284980536,0.0010673197684809566,0.001083484385162592,-0.0011935055954381824,-0.0011662525357678533,-9.817985534667969,0,0,29.303586959838867,1,1,1000,1000
1778785733.41946483,74604313,1,0.0010132367024198174,0.0009706259006634355,0.0010001544142141938,-0.0028275162912905216,-0.001723815337754786,-9.818585395812988,0,0,29.303586959838867,1,1,760,800
1778785733.45944881,74644297,0,0.0010212966008111835,0.0010224137222394347,0.001098506385460496,-0.001718561165034771,-0.0005361912772059441,-9.817222595214844,0,0,29.305679321289062,1,1,1000,1000
1778785733.45944881,74644297,1,0.001016727415844798,0.0012447701301425695,0.0012926636263728142,-0.0006116070435382426,1.4816872862866148e-05,-9.817009925842285,0,0,29.305679321289062,1,1,760,800
1778785733.49943304,74684281,0,0.0010179737582802773,0.0010421073529869318,0.001010326319374144,-0.0010877891909331083,-0.00014125862799119204,-9.818076133728027,0,0,29.307771682739258,1,1,1000,1000
1778785733.49943304,74684281,1,0.0011029932647943497,0.0010532820597290993,0.001230787020176649,-0.00024489566567353904,-0.0021765879355371,-9.816864967346191,0,0,29.307771682739258,1,1,760,800
1778785733.53941703,74724265,0,0.0010970842558890581,0.0010031613055616617,0.0010839160531759262,-0.0012412583455443382,-0.00017772633873391896,-9.816808700561523,0,0,29.309864044189453,1,1,1000,1000
1778785733.53941703,74724265,1,0.0010801907628774643,0.0012559057213366032,0.0009260603110305965,-0.0002087705652229488,-0.001838464057072997,-9.814315795898438,0,0,29.309864044189453,1,1,760,800
1778785733.57940102,74764249,0,0.0010390968527644873,0.000999821349978447,0.001095669693313539,-0.0010601419489830732,-0.0009041656740009785,-9.817707061767578,0,0,29.31195640563965,1,1,1000,1000
1778785733.57940102,74764249,1,0.0009511742973700166,0.0010267604375258088,0.0012206182582303882,-0.0027902787551283836,-0.0026772089768201113,-9.81848430633545,0,0,29.31195640563965,1,1,760,800
1778785733.61938500,74804233,0,0.0010906816460192204,0.0010064106900244951,0.0009946759091690183,-0.0007823603809811175,-0.0011611237423494458,-9.817581176757812,0,0,29.313995361328125,1,1,1000,1000
1778785733.61938500,74804233,1,0.0012061145389452577,0.0012148052919656038,0.0012101740576326847,0.0017341268248856068,-0.0014444824773818254,-9.816607475280762,0,0,29.313995361328125,1,1,760,800
1778785733.65936899,74844217,0,0.001059406204149127,0.0009916501585394144,0.0011018440127372742,-0.0014124908484518528,-0.0003060217131860554,-9.817821502685547,0,0,29.316085815429688,1,1,1000,1000
1778785733.65936899,74844217,1,0.0008817960624583066,0.0011909052263945341,0.0013544675894081593,0.0015144629869610071,0.0008728465763852,-9.81829833984375,0,0,29.316085815429688,1,1,760,800
1778785733.69935298,74884201,0,0.001000766409561038,0.0010304414900019765,0.0010279003763571382,-0.0012822056887671351,-0.002179388888180256,-9.817999839782715,0,0,29.31817626953125,1,1,1000,1000
1778785733.69935298,74884201,1,0.0008908591116778553,0.0011393995955586433,0.001112774945795536,-0.0015425465535372496,-0.0008818403584882617,-9.81912612915039,0,0,29.31817626953125,1,1,760,800
1778785733.73933697,74924185,0,0.0010713014053180814,0.0010937995975837111,0.0010579472873359919,-0.0014198424760252237,-0.00035626214230433106,-9.817584991455078,0,0,29.320266723632812,1,1,1000,1000
1778785733.73933697,74924185,1,0.0009034214308485389,0.0008464499842375517,0.0011892332695424557,-0.00012446512118913233,-0.0018114272970706224,-9.816052436828613,0,0,29.320266723632812,1,1,760,800
1778785733.77932096,74964169,0,0.0011110927443951368,0.0010864129289984703,0.0009767108131200075,-0.001497749937698245,0.0004681968712247908,-9.817789077758789,0,0,29.322357177734375,1,1,1000,1000
1778785733.77932096,74964169,1,0.0009113154374063015,0.0009698177454993129,0.0012092352844774723,-0.0029574595391750336,-0.000763891963288188,-9.819031715393066,0,0,29.322357177734375,1,1,760,800
1778785733.81930494,75004153,0,0.001044619595631957,0.0010426770895719528,0.0010840583126991987,-0.000895668868906796,-0.0009010706562548876,-9.817720413208008,0,0,29.32444953918457,1,1,1000,1000
1778785733.81930494,75004153,1,0.0010326083283871412,0.0011288404930382967,0.001011746353469789,-0.00190036091953516,-0.0002776772598735988,-9.817564964294434,0,0,29.32444953918457,1,1,760,800
1778785733.85928893,75044137,0,0.0010306232143193483,0.0010526209371164441,0.001101113623008132,-0.0010495762107893825,-0.0002427956205792725,-9.816848754882812,0,0,29.3265380859375,1,1,1000,1000
1778785733.85928893,75044137,1,0.0009567687520757318,0.0011313515715301037,0.0011127640027552843,-0.0020263195037841797,-0.0023454250767827034,-9.816920280456543,0,0,29.3265380859375,1,1,760,800
1778785733.89927292,75084121,0,0.0011055769864469767,0.0010575911728665233,0.001011128886602819,-0.0015996398869901896,-0.0002944492152892053,-9.818191528320312,0,0,29.328628540039062,1,1,1000,1000
1778785733.89927292,75084121,1,0.0012791069457307458,0.0009337916853837669,0.0010742383310571313,0.0003182297514285892,-0.000957788375671953,-9.816610336303711,0,0,29.328628540039062,1,1,760,800
1778785733.93925691,75124105,0,0.0010926182148978114,0.0010854651918634772,0.001126950141042471,-0.0007493566954508424,-0.0015743584372103214,-9.819192886352539,0,0,29.330717086791992,1,1,1000,1000
1778785733.93925691,75124105,1,0.0012873619562014937,0.001217775046825409,0.001230480964295566,-0.0009232979500666261,-0.0006210173014551401,-9.815423965454102,0,0,29.330717086791992,1,1,760,800
1778785733.97924089,75164089,0,0.001094658626243472,0.00108057982288301,0.0011742940405383706,-0.00048628784134052694,-0.0011862217215821147,-9.817790985107422,0,0,29.332807540893555,1,1,1000,1000
1778785733.97924089,75164089,1,0.000909694645088166,0.0008820098009891808,0.0010191226610913873,-0.001930678146891296,-0.00039181055035442114,-9.818723678588867,0,0,29.332807540893555,1,1,760,800
1778785734.01922488,75204073,0,0.0010128227295354009,0.0010858209570869803,0.0010350436205044389,-0.0014490046305581927,-0.0002486433368176222,-9.81760025024414,0,0,29.334896087646484,1,1,1000,1000
1778785734.01922488,75204073,1,0.0010172431357204914,0.0009518921724520624,0.0011872102040797472,-0.004528442397713661,0.0003608588594943285,-9.815633773803711,0,0,29.334896087646484,1,1,760,800
1778785734.05920887,75244057,0,0.0009558259625919163,0.0010873733554035425,0.0010911757126450539,-0.002318062586709857,0.0009856626857072115,-9.8169584274292,0,0,29.3370361328125,1,1,1000,1000
1778785734.05920887,75244057,1,0.0011187258642166853,0.0009380474220961332,0.0010326828341931105,-5.432712350739166e-05,-0.003152920166030526,-9.813719749450684,0,0,29.336984634399414,1,1,760,800
1778785734.09919286,75284041,0,0.0009842158760875463,0.001034523593261838,0.001055481261573732,-0.0007792937685735524,-0.0010832012630999088,-9.81828784942627,0,0,29.339122772216797,1,1,1000,1000
1778785734.09919286,75284041,1,0.001231633359566331,0.0010017341701313853,0.0010354311671108007,-0.003862185636535287,0.0003324764547869563,-9.815752983093262,0,0,29.339073181152344,1,1,760,800
1778785734.13917685,75324025,0,0.0010747333290055394,0.0010432584676891565,0.0010607263538986444,-0.0004941708757542074,-0.0010183632839471102,-9.817219734191895,0,0,29.34121322631836,1,1,1000,1000
1778785734.13917685,75324025,1,0.0009872537339106202,0.0008751129498705268,0.00129674281924963,-0.001971250167116523,-3.095266947639175e-05,-9.819489479064941,0,0,29.34115982055664,1,1,760,800
1778785734.17999387,75364842,0,0.0011059724492952228,0.001015542191453278,0.0010859412141144276,0.00013390224194154143,-0.0013428914826363325,-9.817617416381836,0,0,29.343299865722656,1,1,1000,1000
1778785734.17999387,75364842,1,0.0009463763562962413,0.0008273946586996317,0.0009375650552101433,-0.0020439194049686193,-0.004279957618564367,-9.817530632019043,0,0,29.343299865722656,1,1,760,800
1778785734.21997786,75404826,0,0.0010473566362634301,0.0009875650284811854,0.0010801984462887049,-0.0016613856423646212,-0.00113491655793041,-9.817249298095703,0,0,29.345386505126953,1,1,1000,1000
1778785734.21997786,75404826,1,0.0011669578962028027,0.0010634702630341053,0.0011826237896457314,-0.00058907171478495,-0.0014939492102712393,-9.816600799560547,0,0,29.345386505126953,1,1,760,800
1778785734.25996184,75444810,0,0.0010442842030897737,0.0010849472600966692,0.001011311775073409,-0.0006782303098589182,-0.001378104672767222,-9.817944526672363,0,0,29.347475051879883,1,1,1000,1000
1778785734.25996184,75444810,1,0.0010802813339978456,0.0009329725289717317,0.0011586180189624429,0.00023539172252640128,-0.00303180911578238,-9.817034721374512,0,0,29.347475051879883,1,1,760,800
1778785734.29994583,75484794,0,0.0010474706068634987,0.001042296877130866,0.0011148516787216067,-0.0011288967216387391,0.0003846405597869307,-9.818503379821777,0,0,29.349559783935547,1,1,1000,1000
1778785734.29994583,75484794,1,0.001030145911499858,0.0008874427294358611,0.0010192189365625381,-0.0008802020456641912,-0.00023318087914958596,-9.818254470825195,0,0,29.349559783935547,1,1,760,800
1778785734.33992982,75524778,0,0.0011401891242712736,0.0010533146560192108,0.0011250779498368502,-0.0011953517096117139,-0.0007695418898947537,-9.817577362060547,0,0,29.351648330688477,1,1,1000,1000
1778785734.33992982,75524778,1,0.0009276192868128419,0.0013514157617464662,0.0011211945675313473,0.0006749946624040604,-0.0026022414676845074,-9.81789779663086,0,0,29.351648330688477,1,1,760,800
1778785734.37991405,75564762,0,0.0010268149198964238,0.0010858175810426474,0.001105240429751575,-0.0009237770573236048,-0.001001732307486236,-9.817673683166504,0,0,29.35373306274414,1,1,1000,1000
1778785734.37991405,75564762,1,0.0009509499650448561,0.0010266891913488507,0.0010322803864255548,0.00011319598706904799,-0.0002907943562604487,-9.818845748901367,0,0,29.35373306274414,1,1,760,800
1778785734.41989803,75604746,0,0.0010864129289984703,0.0010663627181202173,0.0010721897706389427,-0.0004071615112479776,1.4175569958752021e-05,-9.81756591796875,0,0,29.355819702148438,1,1,1000,1000
1778785734.41989803,75604746,1,0.0013496843166649342,0.0010025720112025738,0.0011195952538400888,-0.0020740716718137264,-0.002654670039191842,-9.819766998291016,0,0,29.355819702148438,1,1,760,800
1778785734.45988202,75644730,0,0.0010901028290390968,0.0011249445378780365,0.0010194693459197879,-0.0008018881781026721,-0.0004232443170621991,-9.816650390625,0,0,29.357906341552734,1,1,1000,1000
1778785734.45988202,75644730,1,0.0008018012158572674,0.0009751248289830983,0.0009072876418940723,-0.00021459267009049654,-0.0025536557659506798,-9.817566871643066,0,0,29.357906341552734,1,1,760,800
1778785734.49986601,75684714,0,0.0011673150584101677,0.0011493479833006859,0.001042837044224143,-0.00019946372776757926,-0.0016734577948227525,-9.816263198852539,0,0,29.3599910736084,1,1,1000,1000
1778785734.49986601,75684714,1,0.0012114752316847444,0.0011431295424699783,0.0008674169075675309,-0.0015090142842382193,-0.0026159840635955334,-9.816368103027344,0,0,29.3599910736084,1,1,760,800
1778785734.53985000,75724698,0,0.0010356595739722252,0.0010000115726143122,0.0010800653835758567,-0.000397138181142509,-0.0029046989511698484,-9.816965103149414,0,0,29.362077713012695,1,1,1000,1000
1778785734.53985000,75724698,1,0.001113652833737433,0.0012101654428988695,0.0009734309278428555,-0.0027573120314627886,-0.0027795862406492233,-9.817779541015625,0,0,29.362077713012695,1,1,760,800
1778785734.57983398,75764682,0,0.0010257853427901864,0.0010800084564834833,0.0010652132332324982,-0.0018828262109309435,-0.0010416631121188402,-9.817153930664062,0,0,29.36416244506836,1,1,1000,1000
1778785734.57983398,75764682,1,0.0008805208490230143,0.0009780777618288994,0.000895464385394007,-0.002091566100716591,-0.0005093900836072862,-9.817482948303223,0,0,29.36416244506836,1,1,760,800
1778785734.61981797,75804666,0,0.0010646320879459381,0.0011035173665732145,0.00104930205270648,-0.0009181441855616868,-0.0006305790157057345,-9.817244529724121,0,0,29.36624526977539,1,1,1000,1000
1778785734.61981797,75804666,1,0.001153107499703765,0.0013260503765195608,0.00115040666423738,-0.0017688869265839458,-0.00015280907973647118,-9.816768646240234,0,0,29.36624526977539,1,1,760,800
1778785734.65980196,75844650,0,0.001051620696671307,0.001083731185644865,0.0010262893047183752,-0.001314498484134674,-0.0011170535581186414,-9.817203521728516,0,0,29.368330001831055,1,1,1000,1000
1778785734.65980196,75844650,1,0.0007985384436324239,0.0011267635272815824,0.0009251123992726207,7.954981992952526e-05,0.0006133649731054902,-9.818449020385742,0,0,29.368330001831055,1,1,760,800
1778785734.69978595,75884634,0,0.001066221739165485,0.0010727893095463514,0.0010121228406205773,-0.0016697130631655455,-0.0010236826492473483,-9.816852569580078,0,0,29.37041473388672,1,1,1000,1000
1778785734.69978595,75884634,1,0.0012530786916613579,0.0012119875755161047,0.0009982126066461205,-0.0018953735707327724,-0.0018057324923574924,-9.817453384399414,0,0,29.37041473388672,1,1,760,800
1778785734.73976994,75924618,0,0.001091980142518878,0.0011043635895475745,0.0010529988212510943,-0.0010538897477090359,-0.0016335903201252222,-9.817065238952637,0,0,29.372499465942383,1,1,1000,1000
1778785734.73976994,75924618,1,0.0010749497450888157,0.001057590008713305,0.0010535434121266007,-0.0002891584299504757,-0.0005299129406921566,-9.816849708557129,0,0,29.372499465942383,1,1,760,800
1778785734.77975392,75964602,0,0.0010888552060350776,0.0011047630105167627,0.0010621801484376192,-0.001525193452835083,-0.0008152684313245118,-9.81821060180664,0,0,29.374582290649414,1,1,1000,1000
1778785734.77975392,75964602,1,0.0008635495905764401,0.0009566139779053628,0.0012736519565805793,-0.00010381115134805441,-0.002066092798486352,-9.817821502685547,0,0,29.374582290649414,1,1,760,800
1778785734.81973791,76004586,0,0.0011041943216696382,0.0010910778073593974,0.001120945205911994,-0.0002762502699624747,-0.0008781742653809488,-9.81672477722168,0,0,29.376665115356445,1,1,1000,1000
1778785734.81973791,76004586,1,0.000761195202358067,0.0011453106999397278,0.0011067362502217293,-0.003702332265675068,-0.000970585853792727,-9.818045616149902,0,0,29.376665115356445,1,1,760,800
1778785734.85972190,76044570,0,0.001096699619665742,0.0010479361517354846,0.0010591530008241534,-0.0006287773139774799,-0.0010497004259377718,-9.817573547363281,0,0,29.378747940063477,1,1,1000,1000
1778785734.85972190,76044570,1,0.0011181997833773494,0.001029948820360005,0.0009400065755471587,-0.0010967543348670006,-0.002101356163620949,-9.819229125976562,0,0,29.378747940063477,1,1,760,800
1778785734.89970589,76084554,0,0.0010631359182298183,0.0010378480656072497,0.0010691476054489613,-0.0018167084781453013,-0.0018064489122480154,-9.817997932434082,0,0,29.38083267211914,1,1,1000,1000
1778785734.89970589,76084554,1,0.0007822157349437475,0.0011595907853916287,0.0010883125942200422,-2.9526001526392065e-05,0.0006500905146822333,-9.818917274475098,0,0,29.38083267211914,1,1,760,800
1778785734.93968987,76124538,0,0.0009981975890696049,0.0010769078508019447,0.0010725551983341575,-0.0012356373481452465,-0.0015159735921770334,-9.818538665771484,0,0,29.38291358947754,1,1,1000,1000
1778785734.93968987,76124538,1,0.001250679837539792,0.0012311263708397746,0.0007310330984182656,0.0036948747001588345,-0.0024900881107896566,-9.816177368164062,0,0,29.38291358947754,1,1,760,800
1778785734.97967386,76164522,0,0.0011152650695294142,0.0010748328641057014,0.0010545856785029173,-0.0022010242100805044,-0.00047349202213808894,-9.818157196044922,0,0,29.384994506835938,1,1,1000,1000
1778785734.97967386,76164522,1,0.0012286718701943755,0.001100052148103714,0.0008977696998044848,0.0005871792091056705,-0.0019228856544941664,-9.8157958984375,0,0,29.384994506835938,1,1,760,800
1778785735.01965785,76204506,0,0.0010925348615273833,0.0010490443091839552,0.0010133744217455387,0.00019004219211637974,8.269950922112912e-05,-9.817632675170898,0,0,29.38707733154297,1,1,1000,1000
1778785735.01965785,76204506,1,0.001240138546563685,0.0010877782478928566,0.0009970832616090775,-0.004372064024209976,-0.0037675462663173676,-9.816457748413086,0,0,29.38707733154297,1,1,760,800
1778785735.05964184,76244490,0,0.001076029147952795,0.001017883070744574,0.0010608673328533769,2.8764508897438645e-05,-0.0004234241205267608,-9.817998886108398,0,0,29.38916015625,1,1,1000,1000
1778785735.05964184,76244490,1,0.0008893341291695833,0.0012985162902623415,0.0011570543283596635,-0.0014306552475318313,-0.002315365243703127,-9.818266868591309,0,0,29.38916015625,1,1,760,800
1778785735.09962583,76284474,0,0.0010299056302756071,0.0010306598851457238,0.001063079689629376,-0.001415859442204237,-0.0020228205248713493,-9.81766128540039,0,0,29.3912410736084,1,1,1000,1000
1778785735.09962583,76284474,1,0.001091848243959248,0.001189993810839951,0.0010405483189970255,-0.0028240843676030636,-0.0012383462162688375,-9.815593719482422,0,0,29.3912410736084,1,1,760,800
1778785735.13960981,76324458,0,0.0010905448580160737,0.0010787758510559797,0.0010393689153715968,-0.001267245039343834,-0.0012553363339975476,-9.818767547607422,0,0,29.393321990966797,1,1,1000,1000
1778785735.13960981,76324458,1,0.0011582393199205399,0.001325352001003921,0.0011125628370791674,-0.001409370917826891,-0.001740780076943338,-9.81863784790039,0,0,29.393321990966797,1,1,760,800
1778785735.17959404,76364442,0,0.0011166023323312402,0.0011132031213492155,0.0010655506048351526,-0.0009251944138668478,-0.000504536903463304,-9.817566871643066,0,0,29.395402908325195,1,1,1000,1000
1778785735.17959404,76364442,1,0.0011525698937475681,0.0010795663110911846,0.001029637991450727,-0.004010780248790979,-0.001440403750166297,-9.818081855773926,0,0,29.395402908325195,1,1,760,800
1778785735.21957803,76404426,0,0.001083150040358305,0.0010049937991425395,0.001147582195699215,-0.0012300508096814156,8.1139340181835e-05,-9.817710876464844,0,0,29.397483825683594,1,1,1000,1000
1778785735.21957803,76404426,1,0.0013304778840392828,0.0013640988618135452,0.0011985765304416418,-0.0027430334594100714,-0.0012541677569970489,-9.818319320678711,0,0,29.397483825683594,1,1,760,800
1778785735.25956202,76444410,0,0.0010597967775538564,0.0010976723860949278,0.0010696456301957369,-0.0009474462713114917,-0.0010605844436213374,-9.817330360412598,0,0,29.39956283569336,1,1,1000,1000
1778785735.25956202,76444410,1,0.0010265569435432553,0.0009653543820604682,0.0012739949161186814,-0.0029982372652739286,0.001574191963300109,-9.818197250366211,0,0,29.39956283569336,1,1,760,800
1778785735.29954600,76484394,0,0.0011252223048359156,0.0010930562857538462,0.001091063255444169,-0.0005661753239110112,-0.0006243819370865822,-9.817309379577637,0,0,29.401643753051758,1,1,1000,1000
1778785735.29954600,76484394,1,0.0010842584306374192,0.0008869642624631524,0.0010268243495374918,-0.0016169213922694325,-0.0004393615236040205,-9.817599296569824,0,0,29.401643753051758,1,1,760,800
1778785735.33952999,76524378,0,0.0011111273197457194,0.0011046137660741806,0.0011341063072904944,-0.0017245301278308034,-0.0010883830254897475,-9.817350387573242,0,0,29.403722763061523,1,1,1000,1000
1778785735.33952999,76524378,1,0.0012287432327866554,0.0010155176278203726,0.0010410574031993747,-0.0017141754506155849,-0.0002777142508421093,-9.816611289978027,0,0,29.403722763061523,1,1,760,800
1778785735.37951398,76564362,0,0.0010793826077133417,0.0011011313181370497,0.0010606817668303847,-0.0009771600598469377,-0.0007709291530773044,-9.81762981414795,0,0,29.40580177307129,1,1,1000,1000
1778785735.37951398,76564362,1,0.0013298429548740387,0.0011794493766501546,0.0012020793510600924,0.0013538338243961334,0.0005455598002299666,-9.81766414642334,0,0,29.40580177307129,1,1,760,800
1778785735.41949797,76604346,0,0.0011222690809518099,0.0009903780883178115,0.0010936446487903595,0.0002175347472075373,-0.00076543033355847,-9.817156791687012,0,0,29.407882690429688,1,1,1000,1000
1778785735.41949797,76604346,1,0.0012352641206234694,0.000984496553428471,0.0011951698688790202,0.0008168460335582495,-0.0013043549843132496,-9.816914558410645,0,0,29.407882690429688,1,1,760,800
1778785735.45948195,76644330,0,0.0010647239396348596,0.0011509106261655688,0.000997305614873767,-0.002001843648031354,-0.0013139876537024975,-9.819127082824707,0,0,29.40995979309082,1,1,1000,1000
1778785735.45948195,76644330,1,0.0011639549629762769,0.0010284343734383583,0.0010243258439004421,0.0006940213497728109,-0.0013361902674660087,-9.814746856689453,0,0,29.40995979309082,1,1,760,800
1778785735.49946594,76684314,0,0.0011324912775307894,0.0010817311704158783,0.0011195584665983915,-0.0013338616117835045,-0.0002061886916635558,-9.816727638244629,0,0,29.412038803100586,1,1,1000,1000
1778785735.49946594,76684314,1,0.0011060687247663736,0.0010832916013896465,0.001073617720976472,-0.000602765183430165,-0.0014560018898919225,-9.819517135620117,0,0,29.412038803100586,1,1,760,800
1778785735.53944993,76724298,0,0.0010057446779683232,0.001124406699091196,0.001135673956014216,-0.0014939620159566402,0.0001578676310600713,-9.817102432250977,0,0,29.41411590576172,1,1,1000,1000
1778785735.53944993,76724298,1,0.001259964075870812,0.001167974667623639,0.0010150911984965205,-0.003974235616624355,-0.0001728151983115822,-9.819466590881348,0,0,29.41411590576172,1,1,760,800
1778785735.57943392,76764282,0,0.0011197009589523077,0.0010520266368985176,0.001092263963073492,-0.00047367572551593184,-0.002070047426968813,-9.816311836242676,0,0,29.416194915771484,1,1,1000,1000
1778785735.57943392,76764282,1,0.0008954174118116498,0.0009099150192923844,0.0010418611345812678,-0.0015634768642485142,0.000333123782183975,-9.818809509277344,0,0,29.416194915771484,1,1,760,800
1778785735.61941791,76804266,0,0.0010968741262331605,0.0011003648396581411,0.0010128756985068321,-0.0011482022237032652,-0.00043465348426252604,-9.817808151245117,0,0,29.41827392578125,1,1,1000,1000
1778785735.61941791,76804266,1,0.0009632991277612746,0.0010290774516761303,0.0008281859336420894,0.00020791601855307817,-0.0003992980346083641,-9.81843376159668,0,0,29.41827392578125,1,1,760,800
1778785735.65940189,76844250,0,0.0010860397014766932,0.0010365446796640754,0.0010426846565678716,-0.0011415794724598527,-0.0019376121927052736,-9.818504333496094,0,0,29.42034912109375,1,1,1000,1000
1778785735.65940189,76844250,1,0.0010458385804668069,0.0011290094116702676,0.0008932003402151167,-0.0017022964311763644,0.0001625572331249714,-9.818009376525879,0,0,29.42034912109375,1,1,760,800
1778785735.69938588,76884234,0,0.0011046306462958455,0.0011085481382906437,0.0011270849499851465,-0.00114152068272233,-0.001173913013190031,-9.817538261413574,0,0,29.422426223754883,1,1,1000,1000
1778785735.69938588,76884234,1,0.0007279280689544976,0.0011547806207090616,0.0009616429451853037,0.0005112164071761072,0.00012506512575782835,-9.818523406982422,0,0,29.422426223754883,1,1,760,800
1778785735.73936987,76924218,0,0.0010943067027255893,0.001070635742507875,0.0010558102512732148,-0.0010363981127738953,-0.0011671169195324183,-9.81761360168457,0,0,29.42445182800293,1,1,1000,1000
1778785735.73936987,76924218,1,0.0009364581783302128,0.0009217633050866425,0.00107139116153121,0.0002142335579264909,-0.0006149380351416767,-9.819877624511719,0,0,29.42445182800293,1,1,760,800
1778785735.77935386,76964202,0,0.0010914219310507178,0.0011270588729530573,0.0010699073318392038,-0.0011671405518427491,-0.00064450892386958,-9.817378044128418,0,0,29.426528930664062,1,1,1000,1000
1778785735.77935386,76964202,1,0.0009609111002646387,0.0011680972529575229,0.0010782823665067554,-0.002530271653085947,-0.004096622578799725,-9.817344665527344,0,0,29.426528930664062,1,1,760,800
1778785735.81933784,77004186,0,0.0010330936638638377,0.0011150477221235633,0.0011106363963335752,-0.0012472753878682852,-0.00043177747284062207,-9.817091941833496,0,0,29.428604125976562,1,1,1000,1000
1778785735.81933784,77004186,1,0.0011152249062433839,0.0010258903494104743,0.0009798983810469508,-0.003084660042077303,-0.00047122384421527386,-9.819299697875977,0,0,29.428604125976562,1,1,760,800
1778785735.85932183,77044170,0,0.001030554180033505,0.0010784149635583162,0.0011350659187883139,-8.552901272196323e-05,-0.0005531385540962219,-9.817373275756836,0,0,29.430679321289062,1,1,1000,1000
1778785735.85932183,77044170,1,0.0012757012154906988,0.0011814332101494074,0.0011333755683153868,-0.001835785573348403,-0.00020915991626679897,-9.816728591918945,0,0,29.430679321289062,1,1,760,800
1778785735.89930582,77084154,0,0.0011015583295375109,0.0011320916237309575,0.0010990523733198643,-0.0007288320921361446,-0.002436588052660227,-9.816961288452148,0,0,29.432756423950195,1,1,1000,1000
1778785735.89930582,77084154,1,0.0011195268016308546,0.0010486096143722534,0.0013566180132329464,-0.002478286623954773,-0.0017270398093387485,-9.817046165466309,0,0,29.432756423950195,1,1,760,800
1778785735.93929005,77124138,0,0.0011236858554184437,0.0010725243482738733,0.0011382950469851494,-0.0001603374257683754,-0.0010401158360764384,-9.818405151367188,0,0,29.434833526611328,1,1,1000,1000
1778785735.93929005,77124138,1,0.0010952877346426249,0.001014537876471877,0.0010076395701617002,-0.0020575188100337982,-0.0011340042110532522,-9.816232681274414,0,0,29.434833526611328,1,1,760,800
1778785735.97927403,77164122,0,0.0010881059570237994,0.0011046789586544037,0.0011296208249405026,-0.001248567015863955,-0.0010902609210461378,-9.818564414978027,0,0,29.436906814575195,1,1,1000,1000
1778785735.97927403,77164122,1,0.0012093576369807124,0.0010332083329558372,0.0012729261070489883,-0.0006091426475904882,-0.0002261072804685682,-9.818153381347656,0,0,29.436906814575195,1,1,760,800
1778785736.01925802,77204106,0,0.001071820268407464,0.0010809575906023383,0.00109667528886348,-0.0023613651283085346,-0.0007165507995523512,-9.817437171936035,0,0,29.438982009887695,1,1,1000,1000
1778785736.01925802,77204106,1,0.0010843848576769233,0.0011278546880930662,0.0011584492167457938,-0.0007412059349007905,0.00155287841334939,-9.817386627197266,0,0,29.438982009887695,1,1,760,800
1778785736.05924201,77244090,0,0.0010995466727763414,0.0010862350463867188,0.0010432086419314146,-0.0012812177883461118,-0.0013505090028047562,-9.817376136779785,0,0,29.441055297851562,1,1,1000,1000
1778785736.05924201,77244090,1,0.0011387431295588613,0.0010004168143495917,0.0010829651728272438,-0.002590764779597521,-0.0014113718643784523,-9.818184852600098,0,0,29.441055297851562,1,1,760,800
1778785736.09922600,77284074,0,0.0010756627889350057,0.0011106019373983145,0.0011124283773824573,-0.0007434802246280015,-0.0014040234964340925,-9.816837310791016,0,0,29.443130493164062,1,1,1000,1000
1778785736.09922600,77284074,1,0.0011844823602586985,0.000989366788417101,0.0013784437905997038,-0.0006772265769541264,-0.0009314846829511225,-9.814961433410645,0,0,29.443130493164062,1,1,760,800
1778785736.13920999,77324058,0,0.001115615013986826,0.0010658270912244916,0.0010703552979975939,-0.0017147306352853775,-0.0006952990079298615,-9.81731128692627,0,0,29.44525718688965,1,1,1000,1000
1778785736.13920999,77324058,1,0.0012494002003222704,0.0011979087721556425,0.0013173478655517101,-0.0007238532998599112,-0.002082208637148142,-9.816234588623047,0,0,29.445205688476562,1,1,760,800
1778785736.17919397,77364042,0,0.001084614428691566,0.0011017514625564218,0.0011060194810852408,-0.00030482769943773746,-0.0014245646307244897,-9.81765079498291,0,0,29.447330474853516,1,1,1000,1000
1778785736.17919397,77364042,1,0.001108875498175621,0.0010085165267810225,0.001272412482649088,-0.002494936343282461,-0.00213185278698802,-9.816753387451172,0,0,29.44727897644043,1,1,760,800
1778785736.21917796,77404026,0,0.0011164960451424122,0.0011457714717835188,0.001046790275722742,-0.0013350477674975991,-0.002100362442433834,-9.818693161010742,0,0,29.449405670166016,1,1,1000,1000
1778785736.21917796,77404026,1,0.0010397315490990877,0.0012727215653285384,0.0009514599805697799,-0.0015519543085247278,0.000720429525244981,-9.817813873291016,0,0,29.449352264404297,1,1,760,800
1778785736.25999498,77444843,0,0.0011174085084348917,0.0010741116711869836,0.0010985166300088167,-0.0011697288136929274,-0.0004008099786005914,-9.817822456359863,0,0,29.45147705078125,1,1,1000,1000
1778785736.25999498,77444843,1,0.0009365414152853191,0.0010464998194947839,0.001203935593366623,-0.0017876027850434184,-0.001434472156688571,-9.816544532775879,0,0,29.45147705078125,1,1,760,800
1778785736.29997897,77484827,0,0.0011210598750039935,0.0011484556598588824,0.0010378789156675339,-0.0017296778969466686,-0.0007953272433951497,-9.817760467529297,0,0,29.453550338745117,1,1,1000,1000
1778785736.29997897,77484827,1,0.0009856000542640686,0.0012109079398214817,0.0009429982746951282,-0.00011637106945272535,-0.0001709314965410158,-9.817829132080078,0,0,29.453550338745117,1,1,760,800
1778785736.33996296,77524811,0,0.0011180925648659468,0.0011129328049719334,0.001084056799300015,-0.0013719311682507396,-0.0014633052051067352,-9.817553520202637,0,0,29.455623626708984,1,1,1000,1000
1778785736.33996296,77524811,1,0.0012372562196105719,0.0011957675451412797,0.0011414417531341314,0.0002916256198659539,-0.000892840267624706,-9.818552017211914,0,0,29.455623626708984,1,1,760,800
1778785736.37994695,77564795,0,0.0011370497522875667,0.0011108812177553773,0.0010852249106392264,-0.00011804375390056521,-0.0007243416039273143,-9.817238807678223,0,0,29.45769500732422,1,1,1000,1000
1778785736.37994695,77564795,1,0.0012195009039714932,0.0010284277377650142,0.0012266398407518864,-0.001082713482901454,-0.002046676352620125,-9.81645393371582,0,0,29.45769500732422,1,1,760,800
1778785736.41993093,77604779,0,0.0011181965237483382,0.0010668456088751554,0.0011487326119095087,-5.8351703046355397e-05,-0.0016581600066274405,-9.817898750305176,0,0,29.459766387939453,1,1,1000,1000
1778785736.41993093,77604779,1,0.0011204027105122805,0.001245119608938694,0.0009777542436495423,-0.002636514138430357,-0.0008367045084014535,-9.817096710205078,0,0,29.459766387939453,1,1,760,800
1778785736.45991492,77644763,0,0.0010910124983638525,0.001026886166073382,0.0010732660302892327,-0.00026927332510240376,-0.0007700184942223132,-9.81692886352539,0,0,29.461841583251953,1,1,1000,1000
1778785736.45991492,77644763,1,0.000981783145107329,0.0011034130584448576,0.000987156992778182,0.0009788968600332737,-0.0005299152107909322,-9.818404197692871,0,0,29.461841583251953,1,1,760,800
1778785736.49989891,77684747,0,0.0010923835216090083,0.001061743125319481,0.0011608907952904701,-0.000980569515377283,-0.000842798501253128,-9.817169189453125,0,0,29.463912963867188,1,1,1000,1000
1778785736.49989891,77684747,1,0.0011063768761232495,0.0011245452333241701,0.0011125924065709114,-0.001954304985702038,-0.0005130195058882236,-9.818511962890625,0,0,29.463912963867188,1,1,760,800
1778785736.53988290,77724731,0,0.0010646648006513715,0.0010971322190016508,0.0011023826664313674,-0.000967344269156456,-0.0015902981394901872,-9.818293571472168,0,0,29.46598243713379,1,1,1000,1000
1778785736.53988290,77724731,1,0.000968717213254422,0.0011415679473429918,0.00093446159735322,-0.00039337651105597615,-0.002068891888484359,-9.816415786743164,0,0,29.46598243713379,1,1,760,800
1778785736.57986689,77764715,0,0.0011209424119442701,0.0010378160513937473,0.001082917908206582,-0.00040322725544683635,-0.00034980953205376863,-9.816594123840332,0,0,29.468055725097656,1,1,1000,1000
1778785736.57986689,77764715,1,0.0011594115057960153,0.001307887607254088,0.0010521496878936887,0.0007379997405223548,-0.0013647469459101558,-9.818719863891602,0,0,29.468055725097656,1,1,760,800
1778785736.61985087,77804699,0,0.0010957890190184116,0.0011569979833438993,0.0011007311986759305,-0.00040982954669743776,-0.00019750685896724463,-9.941621780395508,0,0,29.470125198364258,1,1,1000,1000
1778785736.61985087,77804699,1,0.0010189845925197005,0.0012494615511968732,0.0010185599094256759,-0.0021105792839080095,-0.003670689184218645,-9.936870574951172,0,0,29.470125198364258,1,1,760,800
1778785736.65983486,77844683,0,0.0010495950700715184,0.0010422547347843647,0.0011032742913812399,-0.0007720617577433586,-0.001938659348525107,-10.467626571655273,0,0,29.47219467163086,1,1,1000,1000
1778785736.65983486,77844683,1,0.0011950245825573802,0.0012105269124731421,0.0009728835429996252,-0.0012848848709836602,-0.0002778730122372508,-10.46337604522705,0,0,29.47219467163086,1,1,760,800
1778785736.69981885,77884667,0,0.0011420553782954812,0.0011075105285272002,0.0010853726416826248,-0.0001503650564700365,-0.0014555787201970816,-10.415522575378418,0,0,29.474266052246094,1,1,1000,1000
1778785736.69981885,77884667,1,0.0010409174719825387,0.001105473143979907,0.0009915288537740707,-0.0009548193775117397,-0.0018442905275151134,-10.418392181396484,0,0,29.474266052246094,1,1,760,800
1778785736.73980284,77924651,0,0.0011095363879576325,0.0011182008311152458,0.0010698738042265177,-0.0004417923919390887,0.00020494346972554922,-10.362157821655273,0,0,29.476335525512695,1,1,1000,1000
1778785736.73980284,77924651,1,0.0010866785887628794,0.0011627479689195752,0.0011063253041356802,-1.7960279365070164e-05,0.0019557997584342957,-10.361031532287598,0,0,29.476335525512695,1,1,760,800
1778785736.77978683,77964635,0,0.001144661451689899,0.001103895017877221,0.0010901334462687373,-0.0002311110874870792,-0.0006488816579803824,-10.404712677001953,0,0,29.478404998779297,1,1,1000,1000
1778785736.77978683,77964635,1,0.0010806848295032978,0.0011877508368343115,0.0011258844751864672,-0.0028389496728777885,-0.0022789272479712963,-10.400532722473145,0,0,29.478404998779297,1,1,760,800
1778785736.81977081,78004619,0,0.0011006493587046862,0.0011287740198895335,0.001079638721421361,-0.0010252980282530189,-0.0012189989211037755,-10.396678924560547,0,0,29.48047637939453,1,1,1000,1000
1778785736.81977081,78004619,1,0.0010344352340325713,0.0012116952566429973,0.0012312631588429213,0.0004199302347842604,0.0015492065576836467,-10.394733428955078,0,0,29.48047637939453,1,1,760,800
1778785736.85975504,78044603,0,0.0011066864244639874,0.0011051814071834087,0.0010910271666944027,-0.0003163643123116344,-0.0012712696334347129,-10.367491722106934,0,0,29.4825439453125,1,1,1000,1000
1778785736.85975504,78044603,1,0.0010660892585292459,0.0012319108936935663,0.001138836145401001,-0.0012671832228079438,-0.0024554491974413395,-10.364246368408203,0,0,29.4825439453125,1,1,760,800
1778785736.89973903,78084587,0,0.0011162345763295889,0.0010823708726093173,0.0010997551726177335,-0.0016049903351813555,7.299662684090436e-05,-10.348392486572266,0,0,29.4846134185791,1,1,1000,1000
1778785736.89973903,78084587,1,0.0011943882564082742,0.0012583814095705748,0.0011736205779016018,0.0009805262088775635,-0.001245437772013247,-10.34358024597168,0,0,29.4846134185791,1,1,760,800
1778785736.93972301,78124571,0,0.0010934812016785145,0.0010984294349327683,0.0010820719180628657,-0.000564366695471108,-0.0006219697534106672,-10.342690467834473,0,0,29.48668098449707,1,1,1000,1000
1778785736.93972301,78124571,1,0.0011722651543095708,0.0011794918682426214,0.0010600779205560684,-0.00016882573254406452,-0.0022238395176827908,-10.340956687927246,0,0,29.48668098449707,1,1,760,800
1778785736.97970700,78164555,0,0.0010403378400951624,0.0010895032901316881,0.001114765997044742,-0.0004288660129532218,-0.0012499531731009483,-10.344650268554688,0,0,29.488750457763672,1,1,1000,1000
1778785736.97970700,78164555,1,0.0010503383819013834,0.0012241059448570013,0.0011159975547343493,-0.0006305680726654828,-0.00075192516669631,-10.341545104980469,0,0,29.488750457763672,1,1,760,800
1778785737.01969099,78204539,0,0.0010786146158352494,0.0010880990885198116,0.0010949879651889205,-0.001544766128063202,-0.001069338759407401,-10.355165481567383,0,0,29.49081802368164,1,1,1000,1000
1778785737.01969099,78204539,1,0.0009816770907491446,0.0012868564808741212,0.0011838419595733285,-0.0007081006187945604,-0.0008041866822168231,-10.34910774230957,0,0,29.49081802368164,1,1,760,800
1778785737.05967498,78244523,0,0.0010924905072897673,0.001137800281867385,0.0011635760311037302,-0.0005806340486742556,-0.0009038854041136801,-10.367209434509277,0,0,29.49288558959961,1,1,1000,1000
1778785737.05967498,78244523,1,0.0010615732753649354,0.001083972747437656,0.0010957395425066352,-0.0007387467776425183,-0.0019355134572833776,-10.364579200744629,0,0,29.49288558959961,1,1,760,800
1778785737.09965897,78284507,0,0.0011280500330030918,0.0010859320173040032,0.0011154110543429852,-0.0009876302210614085,-0.0016616878565400839,-10.382417678833008,0,0,29.494953155517578,1,1,1000,1000
1778785737.09965897,78284507,1,0.0012498961295932531,0.0011410948354750872,0.0010132570751011372,0.001258797594346106,-0.0015221342910081148,-10.3814697265625,0,0,29.494953155517578,1,1,760,800
1778785737.13964295,78324491,0,0.001131826313212514,0.0011254160199314356,0.0010924317175522447,-0.0005789101705886424,-0.002846071496605873,-10.398317337036133,0,0,29.497020721435547,1,1,1000,1000
1778785737.13964295,78324491,1,0.0008754243026487529,0.0010420152684673667,0.001192588941194117,-0.0013087138067930937,0.001948426477611065,-10.394891738891602,0,0,29.497020721435547,1,1,760,800
1778785737.17962694,78364475,0,0.001139461644925177,0.0011388666462153196,0.0010996486525982618,-0.0009590960689820349,-0.0007570449379272759,-10.415887832641602,0,0,29.499088287353516,1,1,1000,1000
1778785737.17962694,78364475,1,0.0010002534836530685,0.0011357096955180168,0.0011699437163770199,0.000853193283546716,-0.003527566557750106,-10.413358688354492,0,0,29.499088287353516,1,1,760,800
1778785737.21961093,78404459,0,0.0011191812809556723,0.001107756863348186,0.0011402282398194075,-0.0010385322384536266,-0.0013918885961174965,-10.429275512695312,0,0,29.50115203857422,1,1,1000,1000
1778785737.21961093,78404459,1,0.0012562876800075173,0.0012005437165498734,0.001156045007519424,-0.0016376283019781113,-0.0017365310341119766,-10.4276123046875,0,0,29.50115203857422,1,1,760,800
1778785737.25959492,78444443,0,0.0010941915679723024,0.0011085914447903633,0.0010756251867860556,-0.0015922915190458298,-0.00041105662239715457,-10.447498321533203,0,0,29.503219604492188,1,1,1000,1000
1778785737.25959492,78444443,1,0.0010325504699721932,0.0010238164104521275,0.0011885249987244606,0.0007344806799665093,0.0014723201747983694,-10.443296432495117,0,0,29.503219604492188,1,1,760,800
1778785737.29957891,78484427,0,-0.026370184496045113,-0.025653444230556488,0.0013788559008389711,0.00024765264242887497,-0.0012453580275177956,-13.42138385772705,0,0,29.505287170410156,1,1,1000,1000
1778785737.29957891,78484427,1,-0.026378590613603592,-0.025466516613960266,0.001268298365175724,0.00024719463544897735,0.000668525870423764,-13.428503036499023,0,0,29.505287170410156,1,1,760,800
1778785737.33956289,78524411,0,-0.031026151031255722,-0.029908111318945885,0.0017868389841169119,-0.005028211046010256,0.002550920471549034,-15.142927169799805,0,0,29.50735092163086,1,1,1000,1000
1778785737.33956289,78524411,1,-0.030830975621938705,-0.02973930537700653,0.0019079773919656873,-0.003435361199080944,0.0039031165651977062,-15.161746978759766,0,0,29.50735092163086,1,1,760,800
1778785737.37954688,78564395,0,-0.029816359281539917,-0.02848835103213787,0.0019389435183256865,-0.011894505470991135,0.009881055913865566,-14.683686256408691,0,0,29.509418487548828,1,1,1000,1000
1778785737.37954688,78564395,1,-0.02981003001332283,-0.028418686240911484,0.0021068984642624855,-0.012081482447683811,0.013516124337911606,-14.699934959411621,0,0,29.509418487548828,1,1,760,800
1778785737.41953087,78604379,0,-0.025663871318101883,-0.024860262870788574,0.00211534951813519,-0.01986934244632721,0.01736142672598362,-13.601828575134277,0,0,29.51148223876953,1,1,1000,1000
1778785737.41953087,78604379,1,-0.025820892304182053,-0.02489549294114113,0.0020967412274330854,-0.020326193422079086,0.015560492873191833,-13.61279296875,0,0,29.51148223876953,1,1,760,800
1778785737.45951486,78644363,0,-0.021136080846190453,-0.020997069776058197,0.002196375047788024,-0.022482024505734444,0.02140367031097412,-12.370887756347656,0,0,29.513547897338867,1,1,1000,1000
1778785737.45951486,78644363,1,-0.021192826330661774,-0.021096210926771164,0.0022258590906858444,-0.021586015820503235,0.019576076418161392,-12.37932014465332,0,0,29.513547897338867,1,1,760,800
1778785737.49949884,78684347,0,-0.016201872378587723,-0.015101875178515911,0.0021332011092454195,-0.021861854940652847,0.021014317870140076,-11.223901748657227,0,0,29.51561164855957,1,1,1000,1000
1778785737.49949884,78684347,1,-0.01618387922644615,-0.015248483046889305,0.0024221257772296667,-0.024020545184612274,0.01955988258123398,-11.227325439453125,0,0,29.51561164855957,1,1,760,800
1778785737.53948283,78724331,0,-0.010256443172693253,-0.009925274178385735,0.00206003338098526,-0.01984557881951332,0.017903054133057594,-10.291611671447754,0,0,29.517677307128906,1,1,1000,1000
1778785737.53948283,78724331,1,-0.010643063113093376,-0.010311195626854897,0.002114837756380439,-0.01845984160900116,0.017816191539168358,-10.294479370117188,0,0,29.517677307128906,1,1,760,800
1778785737.57946682,78764315,0,-0.005435390397906303,-0.005045072641223669,0.0019785731565207243,-0.01296938955783844,0.010512531735002995,-9.635144233703613,0,0,29.51974105834961,1,1,1000,1000
1778785737.57946682,78764315,1,-0.0053541166707873344,-0.005035837646573782,0.0019959835335612297,-0.0132418442517519,0.012843579053878784,-9.635931968688965,0,0,29.51974105834961,1,1,760,800
1778785737.61945105,78804299,0,-0.001463338267058134,-0.00042361137457191944,0.001913070329464972,-0.007191869895905256,0.005030679050832987,-9.267581939697266,0,0,29.521804809570312,1,1,1000,1000
1778785737.61945105,78804299,1,-0.0016226198058575392,-0.00042364216642454267,0.002034964971244335,-0.005955398082733154,0.005882744677364826,-9.266519546508789,0,0,29.521804809570312,1,1,760,800
1778785737.65943503,78844283,0,0.002998172305524349,0.003784670727327466,0.001926220371387899,-0.002543454524129629,0.0008028690936043859,-9.14600944519043,0,0,29.523868560791016,1,1,1000,1000
1778785737.65943503,78844283,1,0.0028874680865556,0.003786601824685931,0.0019153900211676955,-0.006293739657849073,0.000844997470267117,-9.14398193359375,0,0,29.523868560791016,1,1,760,800
1778785737.69941902,78884267,0,0.007624522782862186,0.007425782270729542,0.0017993798246607184,-0.0003478706057649106,-0.001152604352682829,-9.209485054016113,0,0,29.52593231201172,1,1,1000,1000
1778785737.69941902,78884267,1,0.007446249946951866,0.0073004066944122314,0.0019429593812674284,0.0003662987146526575,-0.002562613459303975,-9.204652786254883,0,0,29.52593231201172,1,1,760,800
1778785737.73940301,78924251,0,0.010135557502508163,0.01115496177226305,0.0017494199564680457,0.0005059680552221835,-0.0018543730257079005,-9.404285430908203,0,0,29.52799415588379,1,1,1000,1000
1778785737.73940301,78924251,1,0.009948848746716976,0.011191877536475658,0.0019738394767045975,-0.0017629335634410381,-0.004213710781186819,-9.401144981384277,0,0,29.52799415588379,1,1,760,800
1778785737.77938700,78964235,0,0.013327403925359249,0.012965992093086243,0.0017057303339242935,-3.0220524422475137e-05,-0.0016609708545729518,-9.658666610717773,0,0,29.530057907104492,1,1,1000,1000
1778785737.77938700,78964235,1,0.013127030804753304,0.0129745127633214,0.0016196491196751595,-0.0003099054447375238,-0.0031526924576610327,-9.655920028686523,0,0,29.530057907104492,1,1,760,800
1778785737.81937099,79004219,0,0.014513233676552773,0.014242003671824932,0.001682918518781662,-0.002411393914371729,-0.0006572106503881514,-9.935413360595703,0,0,29.53207015991211,1,1,1000,1000
1778785737.81937099,79004219,1,0.014537199400365353,0.014008769765496254,0.0015041357837617397,-0.0011371294967830181,-0.0017197951674461365,-9.936875343322754,0,0,29.53207015991211,1,1,760,800
1778785737.85935497,79044203,0,0.01619671657681465,0.015946952626109123,0.0016620638780295849,-0.0028804580215364695,0.0011989076156169176,-10.190682411193848,0,0,29.534130096435547,1,1,1000,1000
1778785737.85935497,79044203,1,0.016028020530939102,0.015945594757795334,0.001860768417827785,-0.005330151412636042,0.0021330686286091805,-10.18962287902832,0,0,29.534130096435547,1,1,760,800
1778785737.89933896,79084187,0,0.017574146389961243,0.01701219007372856,0.0015826046001166105,-0.006099003832787275,0.004034120589494705,-10.40618896484375,0,0,29.53619384765625,1,1,1000,1000
1778785737.89933896,79084187,1,0.017704492434859276,0.016950421035289764,0.0018194480799138546,-0.004526179283857346,0.0015990970423445106,-10.405316352844238,0,0,29.53619384765625,1,1,760,800
1778785737.93932295,79124171,0,0.017448782920837402,0.01739376038312912,0.0016372856916859746,-0.005997049622237682,0.004219934344291687,-10.579399108886719,0,0,29.538253784179688,1,1,1000,1000
1778785737.93932295,79124171,1,0.017419833689928055,0.017253916710615158,0.0016852966509759426,-0.007664231583476067,0.007894645445048809,-10.579553604125977,0,0,29.538253784179688,1,1,760,800
1778785737.97930694,79164155,0,0.01957053318619728,0.018176771700382233,0.0015923816245049238,-0.006788218393921852,0.005082026589661837,-10.688526153564453,0,0,29.540315628051758,1,1,1000,1000
1778785737.97930694,79164155,1,0.01955534890294075,0.018280673772096634,0.0015999218448996544,-0.009198390878736973,0.005319805815815926,-10.688006401062012,0,0,29.540315628051758,1,1,760,800
1778785738.01929092,79204139,0,0.016138050705194473,0.01699340157210827,0.0016362983733415604,-0.008253460749983788,0.006663433741778135,-10.779642105102539,0,0,29.542377471923828,1,1,1000,1000
1778785738.01929092,79204139,1,0.016288314014673233,0.016992051154375076,0.001756540616042912,-0.008098983205854893,0.008030589669942856,-10.779207229614258,0,0,29.542377471923828,1,1,760,800
1778785738.05927491,79244123,0,0.016655761748552322,0.013624001294374466,0.0015898447018116713,-0.009039158001542091,0.008551433682441711,-10.811887741088867,0,0,29.544437408447266,1,1,1000,1000
1778785738.05927491,79244123,1,0.016459191218018532,0.013532975688576698,0.0016459969338029623,-0.009044816717505455,0.008120093494653702,-10.81187629699707,0,0,29.544437408447266,1,1,760,800
1778785738.09925890,79284107,0,0.014158757403492928,0.014365321025252342,0.0016125200781971216,-0.00986262783408165,0.007187847979366779,-10.826628684997559,0,0,29.546499252319336,1,1,1000,1000
1778785738.09925890,79284107,1,0.014177634380757809,0.014211079105734825,0.0017137634567916393,-0.008017236366868019,0.007834081538021564,-10.826480865478516,0,0,29.546499252319336,1,1,760,800
1778785738.13924289,79324091,0,0.012481742538511753,0.013957047834992409,0.0016117109917104244,-0.010373345576226711,0.008994689211249352,-10.825839042663574,0,0,29.548559188842773,1,1,1000,1000
1778785738.13924289,79324091,1,0.012468548491597176,0.014145663008093834,0.0016420366009697318,-0.009212760254740715,0.005768417380750179,-10.824533462524414,0,0,29.548559188842773,1,1,760,800
1778785738.17922688,79364075,0,0.011868495494127274,0.012055461294949055,0.0015212246216833591,-0.009600825607776642,0.009470888413488865,-10.82204532623291,0,0,29.55061912536621,1,1,1000,1000
1778785738.17922688,79364075,1,0.01164235919713974,0.012249266728758812,0.0016047488898038864,-0.010410737246274948,0.0069488827139139175,-10.82283878326416,0,0,29.55061912536621,1,1,760,800
1778785738.21921086,79404059,0,0.010795759968459606,0.009264628402888775,0.0014488385058939457,-0.008757279254496098,0.0072298189625144005,-10.81596565246582,0,0,29.552730560302734,1,1,1000,1000
1778785738.21921086,79404059,1,0.010633574798703194,0.009330598637461662,0.0014207018539309502,-0.007781161926686764,0.006368561647832394,-10.815711975097656,0,0,29.55267906188965,1,1,760,800
1778785738.25919485,79444043,0,0.00999006349593401,0.008143788203597069,0.0013839819002896547,-0.00879356823861599,0.008694137446582317,-10.804178237915039,0,0,29.554790496826172,1,1,1000,1000
1778785738.25919485,79444043,1,0.00968214962631464,0.008185836486518383,0.0014879840891808271,-0.00930687878280878,0.007754653226584196,-10.803058624267578,0,0,29.554738998413086,1,1,760,800
1778785738.29917884,79484027,0,0.009734202176332474,0.007667476776987314,0.0014117932878434658,-0.009713803417980671,0.007299055345356464,-10.802817344665527,0,0,29.556848526000977,1,1,1000,1000
1778785738.29917884,79484027,1,0.009749633260071278,0.007653329521417618,0.0017258038278669119,-0.009626646526157856,0.007162521593272686,-10.804405212402344,0,0,29.55679702758789,1,1,760,800
1778785738.33999586,79524844,0,0.006434881128370762,0.010091803967952728,0.0013982739765197039,-0.009120128117501736,0.007475201040506363,-10.809167861938477,0,0,29.55890655517578,1,1,1000,1000
1778785738.33999586,79524844,1,0.00639895536005497,0.010146001353859901,0.001402729656547308,-0.008379239588975906,0.008208793587982655,-10.808526992797852,0,0,29.55890655517578,1,1,760,800
1778785738.37997985,79564828,0,0.01033290009945631,0.004313001874834299,0.0014625301118940115,-0.008550804108381271,0.006481264252215624,-10.813858032226562,0,0,29.56096649169922,1,1,1000,1000
1778785738.37997985,79564828,1,0.010275022126734257,0.004362173844128847,0.0013496442697942257,-0.006806014571338892,0.004484961275011301,-10.814687728881836,0,0,29.56096649169922,1,1,760,800
1778785738.41996384,79604812,0,0.004713625647127628,0.008055053651332855,0.001455016783438623,-0.008569938130676746,0.006671754643321037,-10.824453353881836,0,0,29.563026428222656,1,1,1000,1000
1778785738.41996384,79604812,1,0.004752311855554581,0.007833506911993027,0.0016838308656588197,-0.011351384222507477,0.007044946774840355,-10.825529098510742,0,0,29.563026428222656,1,1,760,800
1778785738.45994782,79644796,0,0.005356609355658293,0.00299640535376966,0.0014527091989293694,-0.009169934317469597,0.006897936575114727,-10.829667091369629,0,0,29.56508445739746,1,1,1000,1000
1778785738.45994782,79644796,1,0.005333613604307175,0.003139242995530367,0.0014918738743290305,-0.009090576320886612,0.00656039547175169,-10.828302383422852,0,0,29.56508445739746,1,1,760,800
1778785738.49993181,79684780,0,0.005772496573626995,0.006403154693543911,0.001377201173454523,-0.009481060318648815,0.0062539535574615,-10.844345092773438,0,0,29.567142486572266,1,1,1000,1000
1778785738.49993181,79684780,1,0.0057268692180514336,0.006403801497071981,0.0013399954186752439,-0.00945989042520523,0.009698656387627125,-10.842316627502441,0,0,29.567142486572266,1,1,760,800
1778785738.53991604,79724764,0,0.0034469931852072477,0.0019283706787973642,0.0014391813892871141,-0.007933774963021278,0.005788702517747879,-10.857975959777832,0,0,29.569198608398438,1,1,1000,1000
1778785738.53991604,79724764,1,0.0033462306018918753,0.0016526998952031136,0.0012742544058710337,-0.007521942723542452,0.004401291720569134,-10.859408378601074,0,0,29.569198608398438,1,1,760,800
1778785738.57990003,79764748,0,0.0042337654158473015,0.004984167404472828,0.001436325372196734,-0.008306803181767464,0.007178303319960833,-10.878165245056152,0,0,29.571256637573242,1,1,1000,1000
1778785738.57990003,79764748,1,0.0043651992455124855,0.005079301074147224,0.001233344548381865,-0.006968414876610041,0.00508591253310442,-10.880767822265625,0,0,29.571256637573242,1,1,760,800
1778785738.61988401,79804732,0,0.0023804320953786373,0.0023871734738349915,0.0015155465807765722,-0.00925031304359436,0.006100167520344257,-10.883883476257324,0,0,29.573312759399414,1,1,1000,1000
1778785738.61988401,79804732,1,0.0024528121575713158,0.002270640805363655,0.001415933482348919,-0.007899250835180283,0.00721580209210515,-10.884577751159668,0,0,29.573312759399414,1,1,760,800
1778785738.65986800,79844716,0,0.0018658627523109317,0.000517581298481673,0.0015125577338039875,-0.006886276416480541,0.005285611376166344,-10.88114070892334,0,0,29.575368881225586,1,1,1000,1000
1778785738.65986800,79844716,1,0.0018704533576965332,0.0004428241809364408,0.0015922149177640676,-0.00935986265540123,0.0068010082468390465,-10.882591247558594,0,0,29.575368881225586,1,1,760,800
1778785738.69985199,79884700,0,0.001792576047591865,0.003628416685387492,0.0015148625243455172,-0.008020136505365372,0.006012373603880405,-10.902196884155273,0,0,29.57742691040039,1,1,1000,1000
1778785738.69985199,79884700,1,0.0018143805209547281,0.003745677648112178,0.0016002889024093747,-0.006954359821975231,0.007503715809434652,-10.902446746826172,0,0,29.57742691040039,1,1,760,800
1778785738.73983598,79924684,0,0.0018237303011119366,0.003322756849229336,0.0014969571493566036,-0.007434649392962456,0.0047120144590735435,-10.884754180908203,0,0,29.579483032226562,1,1,1000,1000
1778785738.73983598,79924684,1,0.0018931052181869745,0.0031607169657945633,0.0015264558605849743,-0.0075693861581385136,0.005522777326405048,-10.886018753051758,0,0,29.579483032226562,1,1,760,800
1778785738.77981997,79964668,0,0.003552274079993367,6.149637192720547e-05,0.0016141920350492,-0.006903805769979954,0.0047366926446557045,-10.903661727905273,0,0,29.581539154052734,1,1,1000,1000
1778785738.77981997,79964668,1,0.003471003845334053,7.681860006414354e-05,0.001613758155144751,-0.006256507243961096,0.0037089590914547443,-10.905884742736816,0,0,29.581539154052734,1,1,760,800
1778785738.81980395,80004652,0,0.0014643070753663778,0.0002916999510489404,0.001623672666028142,-0.007329141721129417,0.004848300479352474,-10.888545036315918,0,0,29.583593368530273,1,1,1000,1000
1778785738.81980395,80004652,1,0.0015022358857095242,0.0001679376873653382,0.0017604505410417914,-0.006023121066391468,0.0009750935714691877,-10.887691497802734,0,0,29.583593368530273,1,1,760,800
1778785738.85978794,80044636,0,0.0023730520624667406,0.0014636414125561714,0.001639697002246976,-0.006200477015227079,0.003625460434705019,-10.898702621459961,0,0,29.585649490356445,1,1,1000,1000
1778785738.85978794,80044636,1,0.002472478663548827,0.0013990041334182024,0.0015481691807508469,-0.0064499033614993095,0.0027656559832394123,-10.898329734802246,0,0,29.585649490356445,1,1,760,800
1778785738.89977193,80084620,0,0.0018368206219747663,0.0013559707440435886,0.0016677194507792592,-0.006328731309622526,0.004277169704437256,-10.880313873291016,0,0,29.587705612182617,1,1,1000,1000
1778785738.89977193,80084620,1,0.001810775836929679,0.0013202797854319215,0.001564487931318581,-0.004767536651343107,0.0054990025237202644,-10.878923416137695,0,0,29.587705612182617,1,1,760,800
1778785738.93975592,80124604,0,0.0001986830757232383,0.0002862154215108603,0.0016919260378926992,-0.005606908351182938,0.00268715457059443,-10.892696380615234,0,0,29.589759826660156,1,1,1000,1000
1778785738.93975592,80124604,1,0.0001004984078463167,8.823524694889784e-05,0.0014602207811549306,-0.006617438513785601,0.004731252323836088,-10.893250465393066,0,0,29.589759826660156,1,1,760,800
1778785738.97973990,80164588,0,0.0003379390691407025,0.00044644688023254275,0.0016088957199826837,-0.004324150271713734,0.003877734299749136,-10.870479583740234,0,0,29.591812133789062,1,1,1000,1000
1778785738.97973990,80164588,1,0.00032558973180130124,0.0003283402184024453,0.0018350128084421158,-0.006229419261217117,0.0017801799112930894,-10.86667251586914,0,0,29.591812133789062,1,1,760,800
1778785739.01972389,80204572,0,-0.0012023926246911287,0.0004943680251017213,0.0016276619862765074,-0.006363280583173037,0.0027757117059081793,-10.817689895629883,0,0,29.593868255615234,1,1,1000,1000
1778785739.01972389,80204572,1,-0.0014967659953981638,0.0002984443854074925,0.0015979991294443607,-0.005748387426137924,0.001408849493600428,-10.817904472351074,0,0,29.593868255615234,1,1,760,800
1778785739.05970788,80244556,0,-0.002121786819770932,9.765534923644736e-05,0.001619570655748248,-0.0048082610592246056,0.0038170870393514633,-10.706565856933594,0,0,29.595922470092773,1,1,1000,1000
1778785739.05970788,80244556,1,-0.0022205442655831575,0.0001324842742178589,0.001810075482353568,-0.007726687006652355,0.003153247758746147,-10.704578399658203,0,0,29.595922470092773,1,1,760,800
1778785739.09969187,80284540,0,-0.002004253910854459,0.0006541284383274615,0.0016020210459828377,-0.004992637783288956,0.0018829773180186749,-10.59882926940918,0,0,29.597976684570312,1,1,1000,1000
1778785739.09969187,80284540,1,-0.0018283356912434101,0.0007559171644970775,0.001435749465599656,-0.005750842858105898,0.006256013177335262,-10.600348472595215,0,0,29.597976684570312,1,1,760,800
1778785739.13967586,80324524,0,-0.0019839375745505095,0.0006602231878787279,0.0015270946314558387,-0.005210096016526222,0.0025880809407681227,-10.49667739868164,0,0,29.60002899169922,1,1,1000,1000
1778785739.13967586,80324524,1,-0.0021884401794523,0.0006170555716380477,0.0017442067619413137,-0.003943854942917824,0.003948752768337727,-10.499645233154297,0,0,29.60002899169922,1,1,760,800
1778785739.17965984,80364508,0,-0.0021877912804484367,0.00045334032620303333,0.0015126039506867528,-0.004765515215694904,0.002301155123859644,-10.404989242553711,0,0,29.602083206176758,1,1,1000,1000
1778785739.17965984,80364508,1,-0.002162499586120248,0.00029872581944800913,0.0016329324571415782,-0.004964575637131929,-0.0005538084078580141,-10.402857780456543,0,0,29.602083206176758,1,1,760,800
1778785739.21964383,80404492,0,-0.0017883168766275048,-0.0002511497004888952,0.0015001731226220727,-0.00288980221375823,0.0008285894873552024,-10.320565223693848,0,0,29.604135513305664,1,1,1000,1000
1778785739.21964383,80404492,1,-0.001691552926786244,-0.0003333076019771397,0.0016463191714137793,-0.0033093811944127083,0.0025982342194765806,-10.32126522064209,0,0,29.604135513305664,1,1,760,800
1778785739.25962782,80444476,0,-0.002466014353558421,-0.0008683866471983492,0.0015160742914304137,-0.003775941440835595,0.001329559599980712,-10.242137908935547,0,0,29.606189727783203,1,1,1000,1000
1778785739.25962782,80444476,1,-0.002595348283648491,-0.0010331684025004506,0.001538341399282217,-0.005146864801645279,-0.00017743796342983842,-10.24299430847168,0,0,29.606189727783203,1,1,760,800
1778785739.29961205,80484460,0,-0.001981013920158148,-0.001236084965057671,0.001566613558679819,-0.002619948936626315,-0.00021854456281289458,-10.172760009765625,0,0,29.60824203491211,1,1,1000,1000
1778785739.29961205,80484460,1,-0.0021303188987076283,-0.0012481722515076399,0.0015676792245358229,-0.003941940609365702,-0.0015215531457215548,-10.171069145202637,0,0,29.60824203491211,1,1,760,800
1778785739.33959603,80524444,0,-0.0008077990496531129,-2.0421528461156413e-05,0.0015704324468970299,-0.003152033779770136,0.00022461899789050221,-10.112546920776367,0,0,29.610292434692383,1,1,1000,1000
1778785739.33959603,80524444,1,-0.0008619367727078497,-9.353103814646602e-05,0.001701242639683187,-0.0038635001983493567,0.0006696927594020963,-10.114309310913086,0,0,29.610292434692383,1,1,760,800
1778785739.37958002,80564428,0,-0.0007505239918828011,0.00022150861332193017,0.0015761058311909437,-0.002411680528894067,-0.0011627154890447855,-10.051406860351562,0,0,29.61234474182129,1,1,1000,1000
1778785739.37958002,80564428,1,-0.0009618334588594735,0.00039338431088253856,0.0017726077931001782,-0.004119853489100933,-0.0009739141096360981,-10.051848411560059,0,0,29.61234474182129,1,1,760,800
1778785739.41956401,80604412,0,-0.003083642106503248,-0.002972216345369816,0.001610168837942183,-0.0022010602988302708,-0.0009254067554138601,-10.004951477050781,0,0,29.614395141601562,1,1,1000,1000
1778785739.41956401,80604412,1,-0.003042833646759391,-0.002891771961003542,0.0015009196940809488,-0.003607081715017557,0.0006871311343275011,-10.004476547241211,0,0,29.614395141601562,1,1,760,800
1778785739.45954800,80644396,0,-0.0012265169061720371,-0.0008093444048427045,0.0015455071115866303,-0.0013673885259777308,-4.761989112012088e-05,-9.95545768737793,0,0,29.61644744873047,1,1,1000,1000
1778785739.45954800,80644396,1,-0.0010054513113573194,-0.0007022844511084259,0.0014405937399715185,-0.002788124606013298,-0.0012103964108973742,-9.959223747253418,0,0,29.61644744873047,1,1,760,800
1778785739.49953198,80684380,0,-0.0004991252208128572,-0.00301919667981565,0.0013556493213400245,-0.0018399024847894907,-0.00067680369829759,-9.91942024230957,0,0,29.618497848510742,1,1,1000,1000
1778785739.49953198,80684380,1,-0.0005854708724655211,-0.0029376214370131493,0.001417686347849667,-0.0019423230551183224,-0.001991759054362774,-9.919437408447266,0,0,29.618497848510742,1,1,760,800
1778785739.53951597,80724364,0,-0.0018562496406957507,2.270546247018501e-06,0.001069165300577879,-0.0019403542391955853,-0.0008106640307232738,-9.886189460754395,0,0,29.62055015563965,1,1,1000,1000
1778785739.53951597,80724364,1,-0.001898942282423377,5.899818643229082e-05,0.0010600173845887184,-0.0008347079856321216,-1.3832590411766432e-05,-9.887786865234375,0,0,29.62055015563965,1,1,760,800
1778785739.57949996,80764348,0,-0.0012636645697057247,-0.0017025350825861096,0.000982492696493864,-0.002108963904902339,-0.0002071223279926926,-9.855829238891602,0,0,29.622600555419922,1,1,1000,1000
1778785739.57949996,80764348,1,-0.0012225582031533122,-0.0018565683858469129,0.0009536410216242075,-0.001038326765410602,-0.0006329622119665146,-9.858465194702148,0,0,29.622600555419922,1,1,760,800
1778785739.61948395,80804332,0,-0.0027406990993767977,-0.0014179039280861616,0.0006853644736111164,-0.001681813388131559,-0.0005821917438879609,-9.826647758483887,0,0,29.624650955200195,1,1,1000,1000
1778785739.61948395,80804332,1,-0.0029471172019839287,-0.0014408756978809834,0.000775338732637465,-0.0022031376138329506,-0.0011726401280611753,-9.826263427734375,0,0,29.624650955200195,1,1,760,800
1778785739.65946794,80844316,0,-0.00044383041677065194,-0.0026411646977066994,0.00037786742905154824,-0.0011265827342867851,-0.0010199936805292964,-9.798154830932617,0,0,29.626699447631836,1,1,1000,1000
1778785739.65946794,80844316,1,-0.0005239970632828772,-0.0026492616161704063,0.0004525089170783758,-0.0012869843048974872,-0.0009408300975337625,-9.798232078552246,0,0,29.626699447631836,1,1,760,800
1778785739.69945192,80884300,0,-0.00037471525138244033,-0.0025836436543613672,0.00041673218947835267,-0.0011476711370050907,-0.001401737448759377,-9.78564453125,0,0,29.62874984741211,1,1,1000,1000
1778785739.69945192,80884300,1,-0.0004043413500767201,-0.002748912898823619,0.0004420961195137352,-0.0028931815177202225,-0.0006893584504723549,-9.785006523132324,0,0,29.62874984741211,1,1,760,800
1778785739.73943591,80924284,0,-0.00019663684361148626,-0.0010219711111858487,6.649262650171295e-05,-0.001204578555189073,-0.001584359328262508,-9.765460014343262,0,0,29.63079833984375,1,1,1000,1000
1778785739.73943591,80924284,1,-0.00013765398762188852,-0.0009432287188246846,-1.799508936528582e-05,-0.001270479871891439,-0.0011007089633494616,-9.766520500183105,0,0,29.63079833984375,1,1,760,800
1778785739.77941990,80964268,0,-0.0003204976674169302,-0.0020838589407503605,4.560947127174586e-05,-0.0006668395362794399,-0.0017632136587053537,-9.756856918334961,0,0,29.63284683227539,1,1,1000,1000
1778785739.77941990,80964268,1,-0.0002948027686215937,-0.002062310464680195,0.00013858883175998926,-0.0012315395288169384,-9.880496509140357e-05,-9.757585525512695,0,0,29.63284683227539,1,1,760,800
1778785739.81940389,81004252,0,-0.0007923741941340268,9.292048343922943e-05,-0.00044171971967443824,-0.0014530515763908625,-0.0015280036022886634,-9.73874568939209,0,0,29.63489532470703,1,1,1000,1000
1778785739.81940389,81004252,1,-0.0009049154468812048,9.258071077056229e-05,-0.00042920286068692803,-0.0016277356771752238,-0.0026937508955597878,-9.739234924316406,0,0,29.63489532470703,1,1,760,800
1778785739.85938787,81044236,0,-0.0006025875918567181,0.0010577281937003136,-0.0005423032562248409,-0.0005590895307250321,-0.0009290140587836504,-9.733780860900879,0,0,29.636943817138672,1,1,1000,1000
1778785739.85938787,81044236,1,-0.0005117785185575485,0.0008521022973582149,-0.000586572743486613,-0.0016556300688534975,2.9090984753565863e-05,-9.73358154296875,0,0,29.636943817138672,1,1,760,800
1778785739.89937186,81084220,0,-0.00041233375668525696,0.0013987470883876085,-0.0004294396785553545,0.0006767604500055313,-0.0014812768204137683,-9.734002113342285,0,0,29.63894271850586,1,1,1000,1000
1778785739.89937186,81084220,1,-0.0004514424072112888,0.0013181581161916256,-0.0005823603132739663,0.0019364221952855587,-0.001437971368432045,-9.7333984375,0,0,29.63894271850586,1,1,760,800
1778785739.93935585,81124204,0,-0.0009207673138007522,0.001382917515002191,-0.0004939633654430509,-0.0002569370553828776,-0.0022773565724492073,-9.72325611114502,0,0,29.6409912109375,1,1,1000,1000
1778785739.93935585,81124204,1,-0.0009262089151889086,0.0012972332770004869,-0.00044630141928792,0.0017293187556788325,0.0012008677003905177,-9.723844528198242,0,0,29.6409912109375,1,1,760,800
1778785739.97933984,81164188,0,-0.0007020124467089772,0.0013123837998136878,-0.0008088662871159613,-0.0005821416270919144,-0.0022980018984526396,-9.726420402526855,0,0,29.643037796020508,1,1,1000,1000
1778785739.97933984,81164188,1,-0.0006868409109301865,0.001376794883981347,-0.0008476395159959793,0.00010828112135641277,-0.0049739498645067215,-9.725595474243164,0,0,29.643037796020508,1,1,760,800
1778785740.01932383,81204172,0,0.000854373152833432,-0.00016870925901457667,-0.001160724787041545,-0.0011423721443861723,-0.00223562098108232,-9.719966888427734,0,0,29.645084381103516,1,1,1000,1000
1778785740.01932383,81204172,1,0.0008961393614299595,-0.00015754411288071424,-0.0011869288282468915,-0.0027647786773741245,-0.0021097264252603054,-9.720380783081055,0,0,29.645084381103516,1,1,760,800
1778785740.05930781,81244156,0,-0.00013423450582195073,-0.00039140720036812127,-0.0013418443268164992,-4.7078934585442767e-05,-0.0020439259242266417,-9.716573715209961,0,0,29.647132873535156,1,1,1000,1000
1778785740.05930781,81244156,1,-0.00016269501065835357,-0.0002852133475244045,-0.001473259530030191,0.0006550574908033013,-0.0024041421711444855,-9.714326858520508,0,0,29.647132873535156,1,1,760,800
1778785740.09929204,81284140,0,0.0004142938705626875,0.0013272901996970177,-0.0015356664080172777,-0.00026953930500894785,-0.0015868032351136208,-9.719686508178711,0,0,29.649179458618164,1,1,1000,1000
1778785740.09929204,81284140,1,0.00048090697964653373,0.0012106125941500068,-0.0017325554508715868,-0.000999671290628612,-0.0005450746975839138,-9.722273826599121,0,0,29.649179458618164,1,1,760,800
1778785740.13927603,81324124,0,0.0024535281118005514,0.001968508120626211,-0.0016785720363259315,-0.00033921803697012365,-0.0026046931743621826,-9.725366592407227,0,0,29.651226043701172,1,1,1000,1000
1778785740.13927603,81324124,1,0.0025112945586442947,0.0018819109536707401,-0.0017021892126649618,0.0010158555814996362,-0.0004083789826836437,-9.724495887756348,0,0,29.651226043701172,1,1,760,800
1778785740.17926002,81364108,0,0.0035973291378468275,0.0030386445578187704,-0.0015734592452645302,-0.0012161667691543698,-0.0003704293631017208,-9.731435775756836,0,0,29.65327262878418,1,1,1000,1000
1778785740.17926002,81364108,1,0.003465028712525964,0.002989554312080145,-0.0016361314337700605,-0.0007086934056133032,-0.003023092867806554,-9.731237411499023,0,0,29.65327262878418,1,1,760,800
1778785740.21924400,81404092,0,0.0036984188482165337,0.0030894733499735594,-0.0013557841302827,-0.000804077775683254,-0.0013736025430262089,-9.734498977661133,0,0,29.655319213867188,1,1,1000,1000
1778785740.21924400,81404092,1,0.003438139334321022,0.003266924759373069,-0.0012964471243321896,-0.002389742759987712,-0.0035439191851764917,-9.73625373840332,0,0,29.655319213867188,1,1,760,800
1778785740.25922799,81444076,0,0.002335720229893923,0.002596525242552161,-0.0012342092813923955,-0.00044240232091397047,-0.0014142021536827087,-9.736442565917969,0,0,29.657363891601562,1,1,1000,1000
1778785740.25922799,81444076,1,0.002271559787914157,0.0025615915656089783,-0.000921329134143889,-0.0026299848686903715,-0.002780285431072116,-9.736246109008789,0,0,29.657363891601562,1,1,760,800
1778785740.29921198,81484060,0,0.001559319905936718,0.0013711793581023812,-0.0010275120148435235,-0.001554151065647602,-0.0007839054451324046,-9.739749908447266,0,0,29.659461975097656,1,1,1000,1000
1778785740.29921198,81484060,1,0.0016497836913913488,0.0013571430463343859,-0.0009871232323348522,0.0014337626053020358,-0.001739879371598363,-9.741159439086914,0,0,29.659408569335938,1,1,760,800
1778785740.33919597,81524044,0,0.0025589088909327984,0.0033662698697298765,-0.0008975916425697505,-0.0009009462082758546,-0.001627665595151484,-9.753382682800293,0,0,29.66150665283203,1,1,1000,1000
1778785740.33919597,81524044,1,0.0024444679729640484,0.003346397075802088,-0.0008829754078760743,-0.0003252419992350042,-0.002123582176864147,-9.753314971923828,0,0,29.661455154418945,1,1,760,800
1778785740.37917995,81564028,0,0.002454675268381834,0.0030853680800646544,-0.0007375808781944215,-0.00016752589726820588,-0.002375862095504999,-9.75318431854248,0,0,29.663551330566406,1,1,1000,1000
1778785740.37917995,81564028,1,0.002337186597287655,0.0028782207518815994,-0.0007522125961259007,-0.0013328425120562315,-0.003044694662094116,-9.753910064697266,0,0,29.66349983215332,1,1,760,800
1778785740.41999698,81604845,0,0.002286088652908802,0.002887996844947338,-0.000599812890868634,-0.001614416716620326,-0.002248818054795265,-9.754060745239258,0,0,29.66559600830078,1,1,1000,1000
1778785740.41999698,81604845,1,0.0021391715854406357,0.0028361964505165815,-0.0007123585673980415,-0.0008818520000204444,-0.0001536020718049258,-9.754091262817383,0,0,29.66559600830078,1,1,760,800
1778785740.45998096,81644829,0,0.0021878951229155064,0.002732560271397233,-0.0004361067549325526,0.0002347106346860528,-0.0011677565053105354,-9.756059646606445,0,0,29.667640686035156,1,1,1000,1000
1778785740.45998096,81644829,1,0.0022089779376983643,0.002756500616669655,-0.0003592647844925523,-0.0005595823749899864,-0.002586713060736656,-9.756295204162598,0,0,29.667640686035156,1,1,760,800
1778785740.49996495,81684813,0,0.0020091428887099028,0.002570602810010314,-0.00035184764419682324,-0.0005603889003396034,-0.00248699146322906,-9.7567777633667,0,0,29.66968536376953,1,1,1000,1000
1778785740.49996495,81684813,1,0.002019355772063136,0.00244509382173419,-0.0003597118775360286,-0.001022975891828537,-0.003305179998278618,-9.75779914855957,0,0,29.66968536376953,1,1,760,800
1778785740.53994894,81724797,0,0.00193052610848099,0.0023651542142033577,-0.00014021054084878415,-0.001101640984416008,-0.002157120034098625,-9.757726669311523,0,0,29.671728134155273,1,1,1000,1000
1778785740.53994894,81724797,1,0.0020420269574970007,0.0024174433201551437,-0.0003094301209785044,-0.0004909789422526956,0.00016980167129077017,-9.756767272949219,0,0,29.671728134155273,1,1,760,800
1778785740.57993293,81764781,0,0.001869279076345265,0.001843813108280301,-0.00038789596874266863,0.0009583686478435993,-0.00204683979973197,-9.76930046081543,0,0,29.673770904541016,1,1,1000,1000
1778785740.57993293,81764781,1,0.0019047509413212538,0.001993609592318535,-0.0003796633391175419,0.003461128566414118,-0.0038307541981339455,-9.76839542388916,0,0,29.673770904541016,1,1,760,800
1778785740.61991692,81804765,0,0.0017409351421520114,0.0022829605732113123,-0.0009011284564621747,-0.00045040284749120474,-0.0026552556082606316,-9.775442123413086,0,0,29.67581558227539,1,1,1000,1000
1778785740.61991692,81804765,1,0.0018122349865734577,0.0025019003078341484,-0.0008362542139366269,-0.0018715717596933246,-0.002455052686855197,-9.775444984436035,0,0,29.67581558227539,1,1,760,800
1778785740.65990090,81844749,0,0.0019305594032630324,0.002170664258301258,-0.0014203825267031789,-0.0004394762800075114,-0.0009001683793030679,-9.783927917480469,0,0,29.677858352661133,1,1,1000,1000
1778785740.65990090,81844749,1,0.0018407338066026568,0.0022300956770777702,-0.0014199496945366263,0.0018535550916567445,-0.005026369821280241,-9.783708572387695,0,0,29.677858352661133,1,1,760,800
1778785740.69988489,81884733,0,0.0021699240896850824,0.0020812051370739937,-0.0014750491827726364,-0.0007843194762244821,-0.00166204827837646,-9.78746223449707,0,0,29.679901123046875,1,1,1000,1000
1778785740.69988489,81884733,1,0.0018537958385422826,0.001988994888961315,-0.001447000540792942,-0.00012134636926930398,-0.0011240171734243631,-9.787287712097168,0,0,29.679901123046875,1,1,760,800
1778785740.73986888,81924717,0,0.0037867308128625154,0.0019689120817929506,-0.0015367327723652124,-0.0009154222207143903,-0.003032729495316744,-9.790146827697754,0,0,29.681943893432617,1,1,1000,1000
1778785740.73986888,81924717,1,0.003663698909804225,0.0020344466902315617,-0.0014989454066380858,-0.0012584046926349401,-0.0026787493843585253,-9.789161682128906,0,0,29.681943893432617,1,1,760,800
1778785740.77985287,81964701,0,0.0005254606949165463,0.0018778130179271102,-0.0014353995211422443,0.00133197579998523,-0.0027487222105264664,-9.79594612121582,0,0,29.68398666381836,1,1,1000,1000
1778785740.77985287,81964701,1,0.00038519612280651927,0.002105576219037175,-0.0014162580482661724,0.0010187471052631736,-0.0036408379673957825,-9.795720100402832,0,0,29.68398666381836,1,1,760,800
1778785740.81983685,82004685,0,0.000673391914460808,0.0018389573087915778,-0.0012791045010089874,0.0012929231161251664,-0.0013327628839761019,-9.795598983764648,0,0,29.68602752685547,1,1,1000,1000
1778785740.81983685,82004685,1,0.0007903899531811476,0.0017751693958416581,-0.0011207895586267114,-0.0012579149333760142,-0.0026262039318680763,-9.79492473602295,0,0,29.68602752685547,1,1,760,800
1778785740.85982084,82044669,0,0.0006972103146836162,0.0016883929492905736,-0.00106328958645463,2.6275951313436963e-05,-0.0031442283652722836,-9.796270370483398,0,0,29.68807029724121,1,1,1000,1000
1778785740.85982084,82044669,1,0.0009232971351593733,0.0017266049981117249,-0.0008780410280451179,-0.0011949590407311916,-0.003532314905896783,-9.796384811401367,0,0,29.68807029724121,1,1,760,800
1778785740.89980483,82084653,0,0.0007699899142608047,0.0017173150554299355,-0.0008277176530100405,-0.00016467760724481195,-0.0019603436812758446,-9.79664134979248,0,0,29.690113067626953,1,1,1000,1000
1778785740.89980483,82084653,1,0.0006859494606032968,0.0017834794707596302,-0.0008642745669931173,0.0004890876007266343,-0.002224541502073407,-9.799537658691406,0,0,29.690113067626953,1,1,760,800
1778785740.93978882,82124637,0,0.0039014690555632114,0.001625336823053658,-0.0006814978551119566,0.001280561788007617,-0.0024840154219418764,-9.814861297607422,0,0,29.692153930664062,1,1,1000,1000
1778785740.93978882,82124637,1,0.003956245724111795,0.0017840994987636805,-0.00085347646381706,-0.0023759030736982822,-0.001199556514620781,-9.815083503723145,0,0,29.692153930664062,1,1,760,800
1778785740.97977304,82164621,0,0.0050047533586621284,0.0013068196130916476,-0.0010934420861303806,0.0005144619499333203,-0.002413202775642276,-9.81336784362793,0,0,29.694194793701172,1,1,1000,1000
1778785740.97977304,82164621,1,0.004968596156686544,0.001154373399913311,-0.0008126197499223053,0.0004247012548148632,-0.002162026008591056,-9.815778732299805,0,0,29.694194793701172,1,1,760,800
1778785741.01975703,82204605,0,0.005669510457664728,-0.00014290383842308074,-0.0009529729140922427,0.0002523336443118751,-0.0027863194700330496,-9.810609817504883,0,0,29.69623565673828,1,1,1000,1000
1778785741.01975703,82204605,1,0.005633757449686527,-0.00016874745779205114,-0.0010038058971986175,0.0002856985083781183,-0.0017232293030247092,-9.810063362121582,0,0,29.69623565673828,1,1,760,800
1778785741.05974102,82244589,0,0.005374555476009846,0.00029212713707238436,-0.0008695280412212014,-0.0009028667700476944,-0.0021134591661393642,-9.816533088684082,0,0,29.698274612426758,1,1,1000,1000
1778785741.05974102,82244589,1,0.005497617647051811,0.00042148714419454336,-0.0008116252138279378,0.0014338003238663077,-0.0019447468221187592,-9.815135955810547,0,0,29.698274612426758,1,1,760,800
1778785741.09972501,82284573,0,0.005137265659868717,0.00011384253593860194,-0.0007494628662243485,0.0010479434859007597,-0.0016421297332271934,-9.817472457885742,0,0,29.700315475463867,1,1,1000,1000
1778785741.09972501,82284573,1,0.005014111287891865,-2.1098450815770775e-05,-0.0009542392217554152,-0.0007163631962612271,-0.0010349296499043703,-9.816594123840332,0,0,29.700315475463867,1,1,760,800
1778785741.13970900,82324557,0,0.004838788881897926,0.001521250233054161,-0.0007726395851932466,-0.0007486929534934461,-0.0015222914516925812,-9.818608283996582,0,0,29.702354431152344,1,1,1000,1000
1778785741.13970900,82324557,1,0.004745435435324907,0.0015375042567029595,-0.0007066341931931674,-0.0006725030252709985,-0.003979384433478117,-9.81655216217041,0,0,29.702354431152344,1,1,760,800
1778785741.17969298,82364541,0,0.0039559099823236465,0.0026264269836246967,-0.0007507196278311312,0.0008537076646462083,-0.0019685495644807816,-9.816728591918945,0,0,29.704395294189453,1,1,1000,1000
1778785741.17969298,82364541,1,0.003532049711793661,0.0029277338180691004,-0.0007667600875720382,-0.00010075421596411616,-0.0021337708458304405,-9.815744400024414,0,0,29.704395294189453,1,1,760,800
1778785741.21967697,82404525,0,0.0021280753426253796,0.002164694247767329,-0.0006872129742987454,0.0006116380682215095,-0.002251438330858946,-9.822797775268555,0,0,29.70643424987793,1,1,1000,1000
1778785741.21967697,82404525,1,0.002073709387332201,0.0021158712916076183,-0.0007169697782956064,0.0019070992711931467,-0.0016294252127408981,-9.822013854980469,0,0,29.70643424987793,1,1,760,800
1778785741.25966096,82444509,0,0.000759685121010989,0.002196619287133217,-0.0008779594791121781,6.178108014864847e-05,-0.0033160983584821224,-9.822940826416016,0,0,29.708473205566406,1,1,1000,1000
1778785741.25966096,82444509,1,0.0006995265139266849,0.002000811044126749,-0.0008919229148887098,0.0023579506669193506,-0.0023686415515840054,-9.8230619430542,0,0,29.708473205566406,1,1,760,800
1778785741.29964495,82484493,0,0.0008916722144931555,0.0019966650288552046,-0.0010621065739542246,0.0006339712999761105,-0.003652183571830392,-9.821784019470215,0,0,29.71051025390625,1,1,1000,1000
1778785741.29964495,82484493,1,0.0009556126315146685,0.0018792033661156893,-0.0010994512122124434,0.0006218546186573803,-0.0005223912885412574,-9.82385540008545,0,0,29.71051025390625,1,1,760,800
1778785741.33962893,82524477,0,-0.00028170004952698946,0.0019595094490796328,-0.0011733490973711014,0.0015678103081882,-0.003017818322405219,-9.82487964630127,0,0,29.712549209594727,1,1,1000,1000
1778785741.33962893,82524477,1,-0.0002602989552542567,0.0019489162368699908,-0.0012236302718520164,-0.00019670568872243166,-0.003004280850291252,-9.823076248168945,0,0,29.712549209594727,1,1,760,800
1778785741.37961292,82564461,0,-0.0005744683439843357,0.0018838418181985617,-0.0012115576537325978,0.00013255575322546065,-0.004026696085929871,-9.827052116394043,0,0,29.714588165283203,1,1,1000,1000
1778785741.37961292,82564461,1,-0.0005084873409941792,0.001920439419336617,-0.0011690817773342133,7.888246909715235e-05,-0.004147009924054146,-9.827362060546875,0,0,29.714588165283203,1,1,760,800
1778785741.41959691,82604445,0,0.0017413210589438677,0.0018390667391940951,-0.0011046798899769783,0.0014127164613455534,-0.002213333500549197,-9.828960418701172,0,0,29.716625213623047,1,1,1000,1000
1778785741.41959691,82604445,1,0.0017355974996462464,0.001821446930989623,-0.0009311383473686874,-0.0021135881543159485,-0.0015239890199154615,-9.830480575561523,0,0,29.716625213623047,1,1,760,800
1778785741.45958090,82644429,0,0.0016132807359099388,0.0017574813682585955,-0.0008963411091826856,0.001236951444298029,-0.0033392116893082857,-9.827727317810059,0,0,29.718664169311523,1,1,1000,1000
1778785741.45958090,82644429,1,0.0015944086480885744,0.00176881137304008,-0.0009857527911663055,0.003229801543056965,-0.004525606520473957,-9.828041076660156,0,0,29.718664169311523,1,1,760,800
1778785741.49956489,82684413,0,0.0015862712170928717,0.0016716521931812167,-0.0007666363380849361,0.0009789871983230114,-0.0033412473276257515,-9.8294095993042,0,0,29.720701217651367,1,1,1000,1000
1778785741.49956489,82684413,1,0.0014657212886959314,0.00148068240378052,-0.0007164595881476998,0.002356325276196003,-0.005009353626519442,-9.827740669250488,0,0,29.720701217651367,1,1,760,800
1778785741.53954887,82724397,0,0.001546881627291441,0.0015879367711022496,-0.0005532573559321463,0.0011619136203080416,-0.0043909577652812,-9.829122543334961,0,0,29.72273826599121,1,1,1000,1000
1778785741.53954887,82724397,1,0.0014871604507789016,0.0016754341777414083,-0.000607213587500155,-0.0009811613708734512,-0.004510296508669853,-9.827573776245117,0,0,29.72273826599121,1,1,760,800
1778785741.57953286,82764381,0,0.0015096013667061925,0.0015755280619487166,-0.0005002911784686148,0.0006303818663582206,-0.00325490883551538,-9.82811164855957,0,0,29.724773406982422,1,1,1000,1000
1778785741.57953286,82764381,1,0.0013137290952727199,0.0016709000337868929,-0.00042741658398881555,0.0011799114290624857,-0.00502290204167366,-9.82916259765625,0,0,29.724773406982422,1,1,760,800
1778785741.61951685,82804365,0,0.0014542244607582688,0.0015772522892802954,-0.0003282358811702579,0.0016266463790088892,-0.0025516622699797153,-9.827943801879883,0,0,29.726810455322266,1,1,1000,1000
1778785741.61951685,82804365,1,0.0014109192416071892,0.0013778341235592961,-0.0002484874567016959,0.002250317018479109,-0.00341141689568758,-9.82741641998291,0,0,29.726810455322266,1,1,760,800
1778785741.65950084,82844349,0,-0.001093769446015358,-0.0009887394262477756,-0.0001292238594032824,0.0010612603509798646,-0.0039045524317771196,-9.834481239318848,0,0,29.72884750366211,1,1,1000,1000
1778785741.65950084,82844349,1,-0.0012436482356861234,-0.0010504053207114339,-0.00012007523037027568,-0.00010576618660707027,-0.0031240247189998627,-9.8361234664917,0,0,29.72884750366211,1,1,760,800
1778785741.69948483,82884333,0,-0.0019707749597728252,-0.0013180032838135958,6.896154081914574e-05,0.00012631082790903747,-0.003461635671555996,-9.844467163085938,0,0,29.73088264465332,1,1,1000,1000
1778785741.69948483,82884333,1,-0.0021726025734096766,-0.0014933086931705475,1.7407681298209354e-05,0.0006745720747858286,-0.004116518422961235,-9.841236114501953,0,0,29.73088264465332,1,1,760,800
1778785741.73946881,82924317,0,-0.0021465253084897995,-0.0012964279158040881,0.00018249553977511823,0.0025401373859494925,-0.004159892909228802,-9.84079360961914,0,0,29.73291778564453,1,1,1000,1000
1778785741.73946881,82924317,1,-0.002217651344835758,-0.0014180337311699986,5.841668462380767e-05,0.002495137508958578,-0.006950897164642811,-9.841719627380371,0,0,29.73291778564453,1,1,760,800
1778785741.77945304,82964301,0,-0.0025584278628230095,-0.0019057773752138019,0.0001794940762920305,0.0020358781330287457,-0.0038885800167918205,-9.843009948730469,0,0,29.734954833984375,1,1,1000,1000
1778785741.77945304,82964301,1,-0.0024977466091513634,-0.002012119395658374,0.0003065045166295022,0.0014823484234511852,-0.003973312210291624,-9.841498374938965,0,0,29.734954833984375,1,1,760,800
1778785741.81943703,83004285,0,-0.002611735602840781,-0.00274029397405684,0.00020507532462943345,0.002387300133705139,-0.0053882296197116375,-9.844733238220215,0,0,29.736989974975586,1,1,1000,1000
1778785741.81943703,83004285,1,-0.002591043012216687,-0.002926204353570938,0.00019602029351517558,0.0017239481676369905,-0.005679566413164139,-9.847373962402344,0,0,29.736989974975586,1,1,760,800
1778785741.85942101,83044269,0,-0.0026689372025430202,-0.003100162837654352,0.0002393290342297405,0.001557911979034543,-0.00552650261670351,-9.846752166748047,0,0,29.739025115966797,1,1,1000,1000
1778785741.85942101,83044269,1,-0.0025098135229200125,-0.0030531291849911213,0.0001063359304680489,0.0015231375582516193,-0.0013871665578335524,-9.849109649658203,0,0,29.739025115966797,1,1,760,800
1778785741.89940500,83084253,0,-0.0023879793006926775,-0.0018128694500774145,0.0003022274759132415,0.0025347312912344933,-0.004783916287124157,-9.848381042480469,0,0,29.741058349609375,1,1,1000,1000
1778785741.89940500,83084253,1,-0.0022989721037447453,-0.0018056054832413793,0.00039473356446251273,0.0006238128989934921,-0.005260357167571783,-9.846718788146973,0,0,29.741058349609375,1,1,760,800
1778785741.93938899,83124237,0,-0.0013126129051670432,0.00040102232014760375,0.00017450279847253114,0.0018235781462863088,-0.006195784080773592,-9.85245132446289,0,0,29.743093490600586,1,1,1000,1000
1778785741.93938899,83124237,1,-0.0011926222359761596,0.00037470381357707083,-3.709527663886547e-05,0.002919075544923544,-0.0038173487409949303,-9.851119995117188,0,0,29.743093490600586,1,1,760,800
1778785741.97937298,83164221,0,-0.0006209605489857495,0.0003897298884112388,1.3039679288340267e-05,0.0019283456495031714,-0.00443691574037075,-9.849896430969238,0,0,29.74507713317871,1,1,1000,1000
1778785741.97937298,83164221,1,-0.0008044116548262537,0.00018990169337484986,-1.0173645023314748e-05,0.000862749817315489,-0.004705572966486216,-9.850458145141602,0,0,29.74507713317871,1,1,760,800
1778785742.01935697,83204205,0,0.00016133120516315103,0.0004892665892839432,-0.0001275144168175757,0.0017213644459843636,-0.004910670220851898,-9.848055839538574,0,0,29.74711036682129,1,1,1000,1000
1778785742.01935697,83204205,1,3.9671991544310004e-05,0.0004597652587108314,-8.931804040912539e-05,-0.00035399349872022867,-0.007200299762189388,-9.848312377929688,0,0,29.74711036682129,1,1,760,800
1778785742.05934095,83244189,0,0.0012444870080798864,0.0005467895534820855,-0.0001861831988207996,0.0019731579814106226,-0.004076892510056496,-9.852151870727539,0,0,29.7491455078125,1,1,1000,1000
1778785742.05934095,83244189,1,0.0013226992450654507,0.0004478695336729288,-0.00029237353010103106,0.0018025522585958242,-0.0057519469410181046,-9.852306365966797,0,0,29.7491455078125,1,1,760,800
1778785742.09932494,83284173,0,-0.0012031501391902566,0.0005918309325352311,-0.0001508203276898712,0.0025007131043821573,-0.006035196594893932,-9.853705406188965,0,0,29.751178741455078,1,1,1000,1000
