timestamp,TimeUS,I,GyrX,GyrY,GyrZ,AccX,AccY,AccZ,EG,EA,T,GH,AH,GHz,AHz
1778627314.40000010,54605649,0,0.0007621713448315859,0.0007464044028893113,0.0008045530994422734,-0.0016368229407817125,-0.000916681659873575,-9.817384719848633,0,0,28.221546173095703,1,1,1000,1000
1778627314.40000010,54605649,1,0.0008958132239058614,0.0009595470037311316,0.0008400095975957811,-0.0009316150681115687,0.00017480237875133753,-9.818760871887207,0,0,28.221546173095703,1,1,760,800
1778627314.43998408,54645633,0,0.0007561526726931334,0.0007279060082510114,0.0006991310510784388,-0.0010391267715021968,-0.0001624229334993288,-9.817513465881348,0,0,28.223783493041992,1,1,1000,1000
1778627314.43998408,54645633,1,0.0008820737130008638,0.0006740745739080012,0.0008326278766617179,-0.0027284412644803524,0.0003767177986446768,-9.817137718200684,0,0,28.223783493041992,1,1,760,800
1778627314.47996807,54685617,0,0.0007664449512958527,0.0008223361801356077,0.0007152702892199159,-0.0012908626813441515,-0.0011661614989861846,-9.818693161010742,0,0,28.22601890563965,1,1,1000,1000
1778627314.47996807,54685617,1,0.0008552761864848435,0.0009141573682427406,0.0008636125712655485,-0.00034665028215385973,-0.001224786275997758,-9.816581726074219,0,0,28.22601890563965,1,1,760,800
1778627314.51995206,54725601,0,0.0007407722878269851,0.0007561487145721912,0.0006874857353977859,-0.00025929257390089333,-0.0012959659798070788,-9.817179679870605,0,0,28.228256225585938,1,1,1000,1000
1778627314.51995206,54725601,1,0.0007429469842463732,0.0008596171392127872,0.0007406161166727543,0.0002597603597678244,-0.0003483250620774925,-9.817070007324219,0,0,28.228256225585938,1,1,760,800
1778627314.55993605,54765585,0,0.0006930320523679256,0.0008019024389795959,0.0007390644168481231,-0.00022833172988612205,-0.00012714789772871882,-9.81558609008789,0,0,28.230491638183594,1,1,1000,1000
1778627314.55993605,54765585,1,0.0007861219346523285,0.0006291283643804491,0.000828063115477562,-0.0021873374935239553,-0.0007236102828755975,-9.81782341003418,0,0,28.230491638183594,1,1,760,800
1778627314.59992003,54805569,0,0.0007153604528866708,0.0006910663796588778,0.00088456243975088,-0.001145443762652576,-0.0024789609014987946,-9.817925453186035,0,0,28.23272705078125,1,1,1000,1000
1778627314.59992003,54805569,1,0.0005420793895609677,0.0005514329532161355,0.0009412296931259334,0.00036176046705804765,-0.0025070796255022287,-9.817121505737305,0,0,28.23272705078125,1,1,760,800
1778627314.63990402,54845553,0,0.0007534229662269354,0.0007936532492749393,0.0008263419149443507,-0.0012447668705135584,-0.0016474908916279674,-9.81739616394043,0,0,28.234962463378906,1,1,1000,1000
1778627314.63990402,54845553,1,0.0006995175499469042,0.0009388071484863758,0.0007421946502290666,-0.0016684879083186388,-0.001576637732796371,-9.81494140625,0,0,28.234962463378906,1,1,760,800
1778627314.67988801,54885537,0,0.0007886161911301315,0.0008177086128853261,0.000678775948472321,-0.0010044258087873459,-0.0006870939978398383,-9.816703796386719,0,0,28.237197875976562,1,1,1000,1000
1778627314.67988801,54885537,1,0.0007764011970721185,0.0008013120968826115,0.0007765075424686074,-0.00239621102809906,-0.0002747719408944249,-9.818931579589844,0,0,28.237197875976562,1,1,760,800
1778627314.71987200,54925521,0,0.0008129019406624138,0.0006770651089027524,0.000775702646933496,-0.0006827113684266806,-0.0011298712342977524,-9.816825866699219,0,0,28.23943328857422,1,1,1000,1000
1778627314.71987200,54925521,1,0.0008035877253860235,0.0008541657589375973,0.0008136369287967682,-0.0019162993412464857,-0.0013126629637554288,-9.816179275512695,0,0,28.23943328857422,1,1,760,800
1778627314.75985599,54965505,0,0.00089902279432863,0.0007444192888215184,0.0007986003765836358,-0.00018836154777090997,1.174160024675075e-05,-9.816993713378906,0,0,28.241668701171875,1,1,1000,1000
1778627314.75985599,54965505,1,0.0007339140865951777,0.0007266237516887486,0.0005607597413472831,-0.0010800289455801249,-4.2270297853974625e-05,-9.819928169250488,0,0,28.241668701171875,1,1,760,800
1778627314.79984021,55005489,0,0.0006827876786701381,0.000719287374522537,0.0007832128321751952,-0.0011262603802606463,0.00021983234910294414,-9.816884994506836,0,0,28.2439022064209,1,1,1000,1000
1778627314.79984021,55005489,1,0.0006845822790637612,0.0007323911413550377,0.000581317872274667,-0.0009831173811107874,-0.0018446303438395262,-9.819158554077148,0,0,28.2439022064209,1,1,760,800
1778627314.83982420,55045473,0,0.0008406548295170069,0.0008060145773924887,0.0007205670699477196,-0.0007335685077123344,-0.0005874970811419189,-9.817597389221191,0,0,28.246135711669922,1,1,1000,1000
1778627314.83982420,55045473,1,0.0007959227077662945,0.0007155067287385464,0.0010662885615602136,-0.0022626733407378197,-0.00030394853092730045,-9.817903518676758,0,0,28.24608039855957,1,1,760,800
1778627314.87980819,55085457,0,0.0007695298991166055,0.0007537793135270476,0.0006882324232719839,-0.0008345888345502317,-0.0007961556548252702,-9.818022727966309,0,0,28.248369216918945,1,1,1000,1000
1778627314.87980819,55085457,1,0.0006774699431844056,0.0007478928309865296,0.0009334998321719468,0.0011321307392790914,-0.000966806779615581,-9.81611156463623,0,0,28.248313903808594,1,1,760,800
1778627314.91979218,55125441,0,0.0007300854776985943,0.0007559378282167017,0.0008490452310070395,-0.0011473872000351548,-0.0014520179247483611,-9.81739616394043,0,0,28.25060272216797,1,1,1000,1000
1778627314.91979218,55125441,1,0.0008574410458095372,0.0007349798106588423,0.0006661632214672863,-0.0006853964296169579,-0.0030714848544448614,-9.81692886352539,0,0,28.250545501708984,1,1,760,800
1778627314.95977616,55165425,0,0.0007691886858083308,0.0007660385454073548,0.0007837377488613129,-0.001179037499241531,-0.0010930560529232025,-9.81696891784668,0,0,28.252836227416992,1,1,1000,1000
1778627314.95977616,55165425,1,0.00045072101056575775,0.0008837913046590984,0.0007963625248521566,0.0002020408574026078,0.0009919379372149706,-9.817506790161133,0,0,28.25278091430664,1,1,760,800
1778627314.99976015,55205409,0,0.0008044833084568381,0.000739437120500952,0.0007224658038467169,-0.0013886267552152276,-0.00029501356766559184,-9.817049026489258,0,0,28.255069732666016,1,1,1000,1000
1778627314.99976015,55205409,1,0.0007228977628983557,0.0006342391134239733,0.0012476342963054776,-0.00042297475738450885,-0.00137026933953166,-9.816826820373535,0,0,28.25501251220703,1,1,760,800
1778627315.03974414,55245393,0,0.0008225730853155255,0.0007968040299601853,0.00072187784826383,-0.0012520235031843185,-0.0011368263512849808,-9.81627082824707,0,0,28.257301330566406,1,1,1000,1000
1778627315.03974414,55245393,1,0.0006742811528965831,0.0007631613407284021,0.0008777729817666113,-0.0017503303242847323,0.000346165441442281,-9.818918228149414,0,0,28.257244110107422,1,1,760,800
1778627315.07972813,55285377,0,0.0007352795801125467,0.0007280583376996219,0.0007718655979260802,-0.001260112738236785,-0.0012956229038536549,-9.817628860473633,0,0,28.259532928466797,1,1,1000,1000
1778627315.07972813,55285377,1,0.0010089605348184705,0.0008200402371585369,0.0006857240223325789,-0.001720795058645308,-0.0018676946638152003,-9.81685733795166,0,0,28.259477615356445,1,1,760,800
1778627315.11971211,55325361,0,0.0008501361589878798,0.000730049388948828,0.0008260930771939456,-0.0018880835268646479,-0.0011550248600542545,-9.817134857177734,0,0,28.261764526367188,1,1,1000,1000
1778627315.11971211,55325361,1,0.0006188974366523325,0.0008078443352133036,0.0006746960571035743,-0.0003361286362633109,-0.0005264222854748368,-9.81771183013916,0,0,28.261709213256836,1,1,760,800
1778627315.15969610,55365345,0,0.0007503015222027898,0.0007119330111891031,0.0008299692999571562,-0.000995939364656806,-0.0012627015821635723,-9.818302154541016,0,0,28.263996124267578,1,1,1000,1000
1778627315.15969610,55365345,1,0.0006811522180214524,0.0008807266131043434,0.0007240670965984464,-0.0006831286591477692,-0.0009542850311845541,-9.819029808044434,0,0,28.263940811157227,1,1,760,800
1778627315.19968009,55405329,0,0.0008337479666806757,0.0008595556719228625,0.0008617039420641959,-0.001161105465143919,-0.001265195431187749,-9.817551612854004,0,0,28.26622772216797,1,1,1000,1000
1778627315.19968009,55405329,1,0.0008495952351950109,0.0008210478699766099,0.0007889490807428956,-0.0019029274117201567,-0.0018040461000055075,-9.819618225097656,0,0,28.266172409057617,1,1,760,800
1778627315.23966408,55445313,0,0.0007554235053248703,0.000668250722810626,0.0008133045630529523,-0.0008544540032744408,-0.0018993316916748881,-9.818082809448242,0,0,28.26845932006836,1,1,1000,1000
1778627315.23966408,55445313,1,0.0006806541932746768,0.0009457783307880163,0.0009239466162398458,-0.001422611065208912,-0.000737910158932209,-9.81686782836914,0,0,28.268404006958008,1,1,760,800
1778627315.27964807,55485297,0,0.0008585394825786352,0.0008223858894780278,0.0007570573943667114,-0.0003876221599057317,-0.00040146801620721817,-9.816947937011719,0,0,28.27069091796875,1,1,1000,1000
1778627315.27964807,55485297,1,0.0006606150418519974,0.0007340803858824074,0.001081103109754622,-0.000999200507067144,0.0005109884077683091,-9.817840576171875,0,0,28.270633697509766,1,1,760,800
1778627315.31963205,55525281,0,0.0007598584634251893,0.0007516122423112392,0.0008083565044216812,-0.001532670110464096,-0.0018278055358678102,-9.816536903381348,0,0,28.272920608520508,1,1,1000,1000
1778627315.31963205,55525281,1,0.000613124982919544,0.0008230023668147624,0.0009821063140407205,-0.00067997194128111,0.001205506268888712,-9.817479133605957,0,0,28.272865295410156,1,1,760,800
1778627315.35961604,55565265,0,0.0008215188281610608,0.0007575367344543338,0.0008125199819914997,-0.0003249374858569354,-0.00031433458207175136,-9.817187309265137,0,0,28.275150299072266,1,1,1000,1000
1778627315.35961604,55565265,1,0.0008192224777303636,0.000601705745793879,0.0007934761233627796,-0.00033238413743674755,-0.0010494370944797993,-9.818464279174805,0,0,28.275094985961914,1,1,760,800
1778627315.39960003,55605249,0,0.0008295072475448251,0.0007525345426984131,0.0007671806961297989,-0.0010728677734732628,-0.0006493480177596211,-9.816607475280762,0,0,28.277379989624023,1,1,1000,1000
1778627315.39960003,55605249,1,0.0007348068756982684,0.0005489219911396503,0.0006034538964740932,-0.0015339023666456342,-0.0013170248130336404,-9.815590858459473,0,0,28.277324676513672,1,1,760,800
1778627315.43958402,55645233,0,0.0008408575667999685,0.0007362935575656593,0.0007771480595692992,-0.0006881947047077119,-6.638457125518471e-05,-9.817255973815918,0,0,28.27955436706543,1,1,1000,1000
1778627315.43958402,55645233,1,0.0008129321504384279,0.0007397112203761935,0.0007576391799375415,-0.0036212445702403784,-0.0003167740651406348,-9.815861701965332,0,0,28.27955436706543,1,1,760,800
1778627315.47956800,55685217,0,0.0008316278690472245,0.0008201127639040351,0.0007777594728395343,-0.0013630371540784836,-0.000790894846431911,-9.818620681762695,0,0,28.281784057617188,1,1,1000,1000
1778627315.47956800,55685217,1,0.0009247081470675766,0.0007118677021935582,0.0006614649901166558,-0.004047316964715719,-0.00075960299000144,-9.817474365234375,0,0,28.281784057617188,1,1,760,800
1778627315.51955199,55725201,0,0.0007033492438495159,0.0007402357296086848,0.0007559272344224155,-0.0011340200435370207,-0.0009791671764105558,-9.816900253295898,0,0,28.284011840820312,1,1,1000,1000
1778627315.51955199,55725201,1,0.0007559140212833881,0.0005467747687362134,0.0010139595251530409,-0.00037801978760398924,-0.0011453565675765276,-9.817718505859375,0,0,28.284011840820312,1,1,760,800
1778627315.55953622,55765185,0,0.0007782458560541272,0.0007646807353012264,0.0007248091278597713,-0.001054648426361382,9.816682722885162e-05,-9.818553924560547,0,0,28.28624153137207,1,1,1000,1000
1778627315.55953622,55765185,1,0.0005123392911627889,0.0008761105127632618,0.0008283151546493173,-0.0007143710972741246,-0.0002382278034929186,-9.817438125610352,0,0,28.28624153137207,1,1,760,800
1778627315.59952021,55805169,0,0.0008640549494884908,0.0007204811554402113,0.0008168189087882638,-0.0005189914954826236,-0.0007203215500339866,-9.817261695861816,0,0,28.288469314575195,1,1,1000,1000
1778627315.59952021,55805169,1,0.0007898005424067378,0.0009759542299434543,0.0008620892185717821,-0.0015393092762678862,-0.0006501243333332241,-9.818567276000977,0,0,28.288469314575195,1,1,760,800
1778627315.63950419,55845153,0,0.0007908078841865063,0.000838381121866405,0.0007900767377577722,-0.00016314037202391773,-0.0013067828258499503,-9.817397117614746,0,0,28.29069709777832,1,1,1000,1000
1778627315.63950419,55845153,1,0.0005474758800119162,0.0009305931162089109,0.0009217364131473005,-0.0028714188374578953,-0.0008077670354396105,-9.819730758666992,0,0,28.29069709777832,1,1,760,800
1778627315.67948818,55885137,0,0.0007866399828344584,0.0008805120596662164,0.0007482297951355577,-0.00025626985006965697,-0.000821415800601244,-9.817089080810547,0,0,28.292924880981445,1,1,1000,1000
1778627315.67948818,55885137,1,0.000429548294050619,0.0007633392815478146,0.0007912688888609409,0.0007205606088973582,-0.001063453033566475,-9.817254066467285,0,0,28.292924880981445,1,1,760,800
1778627315.71947217,55925121,0,0.000800269772298634,0.0007876998279243708,0.0008129109046421945,-0.0010462915524840355,-0.0012551115360110998,-9.81760311126709,0,0,28.29515266418457,1,1,1000,1000
1778627315.71947217,55925121,1,0.0007783034816384315,0.0005998880369588733,0.0005510097835212946,0.0006539380992762744,7.481287320842966e-05,-9.817501068115234,0,0,28.29515266418457,1,1,760,800
1778627315.75945616,55965105,0,0.0008102009305730462,0.000729957188013941,0.0007504165405407548,-0.000697565614245832,-0.00034778352710418403,-9.817367553710938,0,0,28.297380447387695,1,1,1000,1000
1778627315.75945616,55965105,1,0.0009222312364727259,0.0008494950598105788,0.000740374787710607,0.00034944197977893054,-0.002349257469177246,-9.817405700683594,0,0,28.297380447387695,1,1,760,800
1778627315.79944015,56005089,0,0.000760879716835916,0.0008104942389763892,0.0007463631918653846,-0.0014975832309573889,-0.0013909402769058943,-9.817874908447266,0,0,28.299606323242188,1,1,1000,1000
1778627315.79944015,56005089,1,0.001064120209775865,0.0009603957878425717,0.0008194479160010815,-0.0024543446488678455,0.00042043632129207253,-9.817586898803711,0,0,28.299606323242188,1,1,760,800
1778627315.83942413,56045073,0,0.0007554809562861919,0.0007498688064515591,0.0008105122833512723,-0.002062091138213873,-0.001470815041102469,-9.818971633911133,0,0,28.30183219909668,1,1,1000,1000
1778627315.83942413,56045073,1,0.0007528380956500769,0.0006510952953249216,0.0006034468533471227,0.0004340076702646911,0.00017140639829449356,-9.818034172058105,0,0,28.30183219909668,1,1,760,800
1778627315.87940812,56085057,0,0.0007428668322972953,0.0007997465436346829,0.0007683078292757273,-0.0012505876366049051,-0.0010064960224553943,-9.817567825317383,0,0,28.304115295410156,1,1,1000,1000
1778627315.87940812,56085057,1,0.0006801086710765958,0.0008902609115466475,0.000829555734526366,-0.0028789611533284187,-0.0010119283106178045,-9.817675590515137,0,0,28.304115295410156,1,1,760,800
1778627315.91939211,56125041,0,0.0007921872311271727,0.0007549361907877028,0.0007528943242505193,-0.0002933717623818666,-0.0017191777005791664,-9.816673278808594,0,0,28.30634117126465,1,1,1000,1000
1778627315.91939211,56125041,1,0.0009464696631766856,0.000667677610181272,0.0009333885391242802,0.0001826154039008543,0.0007343036122620106,-9.817724227905273,0,0,28.30634117126465,1,1,760,800
1778627315.95937610,56165025,0,0.0007392109837383032,0.0007589075248688459,0.0008059670799411833,-0.0016841382021084428,-0.0002934160875156522,-9.817112922668457,0,0,28.30856704711914,1,1,1000,1000
1778627315.95937610,56165025,1,0.0008802617667242885,0.0007563139079138637,0.000600931525696069,-0.0013500176137313247,-0.004339330364018679,-9.818450927734375,0,0,28.30856704711914,1,1,760,800
1778627315.99936008,56205009,0,0.0007178515661507845,0.0007171905017457902,0.0007422663038596511,-0.0008422478567808867,-0.0016265751328319311,-9.817341804504395,0,0,28.310792922973633,1,1,1000,1000
1778627315.99936008,56205009,1,0.0007657759124413133,0.0004580270906444639,0.0006889840587973595,-0.001874179462902248,-0.00029807505779899657,-9.818016052246094,0,0,28.310792922973633,1,1,760,800
1778627316.03934407,56244993,0,0.0008123654406517744,0.0007801625179126859,0.0008526393794454634,-0.0008693650597706437,-0.00028651815955527127,-9.816572189331055,0,0,28.31296157836914,1,1,1000,1000
1778627316.03934407,56244993,1,0.000741609837859869,0.0009887218475341797,0.0006176343304105103,-0.0008941080886870623,-0.0010441303020343184,-9.815774917602539,0,0,28.31296157836914,1,1,760,800
1778627316.07932806,56284977,0,0.0007960405200719833,0.0008837785571813583,0.0007838208111934364,-0.0019025157671421766,-0.0025472366251051426,-9.817048072814941,0,0,28.315185546875,1,1,1000,1000
1778627316.07932806,56284977,1,0.000752760621253401,0.0009799185208976269,0.0007670982740819454,0.0002010111347772181,-0.0004773265973199159,-9.820225715637207,0,0,28.315185546875,1,1,760,800
1778627316.11931205,56324961,0,0.0007212396012619138,0.0008077496895566583,0.0008020267705433071,-0.0012947716750204563,-0.0009235187317244709,-9.817919731140137,0,0,28.317411422729492,1,1,1000,1000
1778627316.11931205,56324961,1,0.0009323899867013097,0.0007746084593236446,0.0008178191492334008,-9.671006409917027e-05,-0.0017563386354595423,-9.814857482910156,0,0,28.317411422729492,1,1,760,800
1778627316.15929604,56364945,0,0.0009130220860242844,0.0007952543091960251,0.000796378415543586,-0.0018813107162714005,-0.00020680960733443499,-9.818341255187988,0,0,28.31963539123535,1,1,1000,1000
1778627316.15929604,56364945,1,0.0007348651415668428,0.0008795470930635929,0.0008664199849590659,0.0002221380127593875,0.0005302096251398325,-9.818643569946289,0,0,28.31963539123535,1,1,760,800
1778627316.19928002,56404929,0,0.0007648401078768075,0.0008383094682358205,0.0008339760242961347,-0.0015963353216648102,-0.0015286107081919909,-9.816078186035156,0,0,28.32185935974121,1,1,1000,1000
1778627316.19928002,56404929,1,0.0006427323096431792,0.0006914795376360416,0.0007158747757785022,-0.00018899416318163276,-0.0011525190202519298,-9.817102432250977,0,0,28.32185935974121,1,1,760,800
1778627316.23926401,56444913,0,0.0007968212594278157,0.0007494146702811122,0.0007561921956948936,-0.0005097172688692808,-0.0015507282223552465,-9.818428993225098,0,0,28.32408332824707,1,1,1000,1000
1778627316.23926401,56444913,1,0.0007991313468664885,0.0008325579110532999,0.0006737782387062907,0.0009207899565808475,-0.0008467561565339565,-9.814793586730957,0,0,28.32408332824707,1,1,760,800
1778627316.27924800,56484897,0,0.0007463775109499693,0.0007333756657317281,0.000834291335195303,-0.0011053275084123015,-0.0013366756029427052,-9.816429138183594,0,0,28.326305389404297,1,1,1000,1000
1778627316.27924800,56484897,1,0.0008647100767120719,0.00098310480825603,0.0007481745560653508,-0.00011125941091449931,-0.0019912205170840025,-9.816715240478516,0,0,28.326305389404297,1,1,760,800
1778627316.31923199,56524881,0,0.0008568154880777001,0.0008935084915719926,0.00075388397090137,-0.0020737661980092525,-0.0002025848370976746,-9.816635131835938,0,0,28.328529357910156,1,1,1000,1000
1778627316.31923199,56524881,1,0.0006142867496237159,0.0008905724971555173,0.0010264137526974082,-0.0008313682628795505,-0.001914626220241189,-9.818211555480957,0,0,28.328529357910156,1,1,760,800
1778627316.35921621,56564865,0,0.0007687608012929559,0.000803235569037497,0.0008491993648931384,-0.0008887880831025541,-0.0005922095733694732,-9.817403793334961,0,0,28.330751419067383,1,1,1000,1000
1778627316.35921621,56564865,1,0.0006423494196496904,0.0008148188935592771,0.0007578613003715873,-0.00041808400419540703,-0.000544901704415679,-9.81537914276123,0,0,28.330751419067383,1,1,760,800
1778627316.39920020,56604849,0,0.0008480669930577278,0.0008174524991773069,0.0007999496883712709,-0.0008594012469984591,-0.00043351881322450936,-9.817493438720703,0,0,28.33297348022461,1,1,1000,1000
1778627316.39920020,56604849,1,0.0007972108433023095,0.0007227323367260396,0.0008873299229890108,-0.000793244456872344,-0.0012897381093353033,-9.81903076171875,0,0,28.33297348022461,1,1,760,800
1778627316.43918419,56644833,0,0.0007797569269314408,0.000825634109787643,0.0007980845402926207,-0.0002321310166735202,-0.0009486862691119313,-9.816900253295898,0,0,28.33519744873047,1,1,1000,1000
1778627316.43918419,56644833,1,0.0007854636060073972,0.00100241438485682,0.000715027388650924,-0.0003693219623528421,-0.0018303000833839178,-9.819570541381836,0,0,28.33519744873047,1,1,760,800
1778627316.48000121,56685650,0,0.0009079173905774951,0.0008637957507744431,0.0008004111587069929,-0.0004107224813196808,-0.0009297777432948351,-9.817817687988281,0,0,28.337474822998047,1,1,1000,1000
1778627316.48000121,56685650,1,0.0006369233597069979,0.0008073762292042375,0.0007129153818823397,-0.003025416284799576,-0.002406318439170718,-9.816951751708984,0,0,28.337474822998047,1,1,760,800
1778627316.51998520,56725634,0,0.0007748531061224639,0.0008357648621313274,0.0007360113086178899,-0.00027921824948862195,-0.0015068261418491602,-9.817493438720703,0,0,28.33969497680664,1,1,1000,1000
1778627316.51998520,56725634,1,0.0010807841317728162,0.0005910370964556932,0.0007861862541176379,0.0018825677689164877,-0.003161088563501835,-9.817573547363281,0,0,28.33969497680664,1,1,760,800
1778627316.55996919,56765618,0,0.0007517311023548245,0.0008188606007024646,0.0008196115959435701,-0.0011987010948359966,-0.001257939962670207,-9.817455291748047,0,0,28.341917037963867,1,1,1000,1000
1778627316.55996919,56765618,1,0.0008186993654817343,0.0008325321250595152,0.0008107150788418949,-0.0014442922547459602,-0.002589684445410967,-9.81735610961914,0,0,28.341917037963867,1,1,760,800
1778627316.59995317,56805602,0,0.000723718898370862,0.0008163985330611467,0.0007632633787579834,-0.0007284284220077097,0.0003251299785915762,-9.816780090332031,0,0,28.34413719177246,1,1,1000,1000
1778627316.59995317,56805602,1,0.0009352242341265082,0.0006629152921959758,0.0009064078330993652,-0.003419042332097888,-0.000351179187418893,-9.816819190979004,0,0,28.34413719177246,1,1,760,800
1778627316.63993716,56845586,0,0.000762472627684474,0.0007322971941903234,0.0008339195046573877,-0.0012116373982280493,-0.0006272278260439634,-9.817051887512207,0,0,28.346357345581055,1,1,1000,1000
1778627316.63993716,56845586,1,0.0008035185164771974,0.0006678916979581118,0.0007415294530801475,-0.0011026982683688402,0.0016253544017672539,-9.81701374053955,0,0,28.346357345581055,1,1,760,800
1778627316.67992115,56885570,0,0.0007919372874312103,0.0008341390639543533,0.0008279238827526569,-0.000447965256171301,-0.0010911696590483189,-9.817663192749023,0,0,28.34857749938965,1,1,1000,1000
1778627316.67992115,56885570,1,0.0006255992921069264,0.0006843588198535144,0.0006146663799881935,5.5321674153674394e-05,-0.00019813083054032177,-9.816564559936523,0,0,28.34857749938965,1,1,760,800
1778627316.71990514,56925554,0,0.0007614186033606529,0.0008185533224605024,0.0008630575030110776,-0.0006393285002559423,-0.0004983062972314656,-9.817901611328125,0,0,28.350797653198242,1,1,1000,1000
1778627316.71990514,56925554,1,0.0009492937242612243,0.0008360807551071048,0.0007765076588839293,0.00021497049601748586,0.00047025602543726563,-9.816349029541016,0,0,28.350797653198242,1,1,760,800
1778627316.75988913,56965538,0,0.0008644924964755774,0.000846856739372015,0.0007550619193352759,-0.0007710298523306847,-0.0004030133713968098,-9.817451477050781,0,0,28.353017807006836,1,1,1000,1000
1778627316.75988913,56965538,1,0.0008401315426453948,0.001189995906315744,0.000996211776509881,0.00020541108096949756,-0.0010445438092574477,-9.81628704071045,0,0,28.353017807006836,1,1,760,800
1778627316.79987311,57005522,0,0.0008123003062792122,0.0007098270580172539,0.0007814137497916818,-0.0006948127993382514,-0.0002717372844927013,-9.816852569580078,0,0,28.35523796081543,1,1,1000,1000
1778627316.79987311,57005522,1,0.0007459300686605275,0.0009589234832674265,0.0009188610129058361,-0.002146855229511857,-0.0006329718744382262,-9.81582260131836,0,0,28.35523796081543,1,1,760,800
1778627316.83985710,57045506,0,0.0008838794892653823,0.0008870111196301877,0.0007640346884727478,-0.0003785958106163889,-0.001181381638161838,-9.816482543945312,0,0,28.35745620727539,1,1,1000,1000
1778627316.83985710,57045506,1,0.0007220595143735409,0.0008554670494049788,0.0008214808185584843,-0.0019493086729198694,-0.001236278796568513,-9.817925453186035,0,0,28.35745620727539,1,1,760,800
1778627316.87984109,57085490,0,0.0007470608688890934,0.0008086603484116495,0.0008442067191936076,-0.0017488657031208277,-0.00042960947030223906,-9.818168640136719,0,0,28.359676361083984,1,1,1000,1000
1778627316.87984109,57085490,1,0.0005948996404185891,0.0005593306850641966,0.0007333206594921649,4.996187271899544e-05,0.0008842394454404712,-9.814959526062012,0,0,28.359676361083984,1,1,760,800
1778627316.91982508,57125474,0,0.0007988514262251556,0.0008397947531193495,0.0008156342664733529,-0.0005313618457876146,-0.001107682939618826,-9.817144393920898,0,0,28.361894607543945,1,1,1000,1000
1778627316.91982508,57125474,1,0.0009917716961354017,0.0010379457380622625,0.0007851923583075404,-0.00042456630035303533,-0.003339943243190646,-9.818126678466797,0,0,28.361839294433594,1,1,760,800
1778627316.95980906,57165458,0,0.000817375723272562,0.000811527541372925,0.0008203011238947511,-0.0012915281113237143,-0.00144495302811265,-9.817756652832031,0,0,28.364112854003906,1,1,1000,1000
1778627316.95980906,57165458,1,0.0005025084246881306,0.0008705467917025089,0.0007617708179168403,-0.0025043345522135496,-0.001289147767238319,-9.816882133483887,0,0,28.364057540893555,1,1,760,800
1778627316.99979305,57205442,0,0.0007449355907738209,0.0007987633580341935,0.0007407742086797953,3.6484569136518985e-05,-0.0009678443311713636,-9.81812572479248,0,0,28.366331100463867,1,1,1000,1000
1778627316.99979305,57205442,1,0.0008243911433964968,0.0006567909149453044,0.0008642759639769793,-0.001772088697180152,-0.0021601389162242413,-9.818574905395508,0,0,28.366275787353516,1,1,760,800
1778627317.03977704,57245426,0,0.0008056429796852171,0.0007513914024457335,0.0008612196543253958,-0.0011840946972370148,-0.0016668124590069056,-9.817974090576172,0,0,28.368547439575195,1,1,1000,1000
1778627317.03977704,57245426,1,0.0008900030516088009,0.00080416991841048,0.0007200631080195308,-0.0032870483119040728,0.0005847978172823787,-9.818666458129883,0,0,28.368492126464844,1,1,760,800
1778627317.07976103,57285410,0,0.0008285635849460959,0.000806448922958225,0.0007516026380471885,-0.0015691379085183144,-0.00026759415050037205,-9.817657470703125,0,0,28.370765686035156,1,1,1000,1000
1778627317.07976103,57285410,1,0.0007018061587586999,0.0008753588190302253,0.0007373997941613197,-0.0016056728782132268,-0.0013725637691095471,-9.816444396972656,0,0,28.370710372924805,1,1,760,800
1778627317.11974502,57325394,0,0.0007447270327247679,0.0008389101712964475,0.0007592846523039043,-0.0016850028187036514,-0.00022335740504786372,-9.817362785339355,0,0,28.372982025146484,1,1,1000,1000
1778627317.11974502,57325394,1,0.0007797477883286774,0.0008292224374599755,0.0005291296984069049,-0.0018453847151249647,-0.0009249461581930518,-9.817914962768555,0,0,28.372926712036133,1,1,760,800
1778627317.15972900,57365378,0,0.0007454595761373639,0.0007926649414002895,0.0007650396437384188,-0.0003317194350529462,-0.00028138927882537246,-9.817359924316406,0,0,28.375200271606445,1,1,1000,1000
1778627317.15972900,57365378,1,0.0007399054593406618,0.000881701591424644,0.0009720767266117036,-0.00038068214780651033,-0.0004619968531187624,-9.817655563354492,0,0,28.375144958496094,1,1,760,800
1778627317.19971299,57405362,0,0.0008245789213106036,0.0008002400863915682,0.0008362105581909418,-0.000807805045042187,-0.0006981332553550601,-9.817463874816895,0,0,28.377416610717773,1,1,1000,1000
1778627317.19971299,57405362,1,0.0007398771704174578,0.0009863377781584859,0.0006109789246693254,-0.0008472198387607932,0.0007125058909878135,-9.81966781616211,0,0,28.37735939025879,1,1,760,800
1778627317.23969722,57445346,0,0.0007893899455666542,0.0007717558182775974,0.0008244001655839384,-0.001152522279880941,-0.0012684676330536604,-9.81856918334961,0,0,28.3796329498291,1,1,1000,1000
1778627317.23969722,57445346,1,0.0008597640553489327,0.0010409128153696656,0.0008685915963724256,-0.0008603325113654137,-0.005372009705752134,-9.817562103271484,0,0,28.379575729370117,1,1,760,800
1778627317.27968121,57485330,0,0.0007789409137330949,0.0007571188034489751,0.0008045978611335158,-0.0013590995222330093,6.539872993016616e-05,-9.81753158569336,0,0,28.381847381591797,1,1,1000,1000
1778627317.27968121,57485330,1,0.00061498221475631,0.00086848100181669,0.0009815514786168933,0.0012591354316100478,-0.0013913734583184123,-9.817533493041992,0,0,28.381792068481445,1,1,760,800
1778627317.31966519,57525314,0,0.000859990541357547,0.0008402083767578006,0.0008941746200434864,-0.0007413332350552082,-0.001172674703411758,-9.818087577819824,0,0,28.384063720703125,1,1,1000,1000
1778627317.31966519,57525314,1,0.0007189311436377466,0.0007663971045985818,0.0008405526168644428,-0.0021780761890113354,-0.0035651482176035643,-9.818005561828613,0,0,28.384008407592773,1,1,760,800
1778627317.35964918,57565298,0,0.0007752868114039302,0.0008405072148889303,0.0007799629238434136,-0.0010175952920690179,-0.0014979711268097162,-9.817081451416016,0,0,28.38627815246582,1,1,1000,1000
1778627317.35964918,57565298,1,0.0006197734037414193,0.0007722839363850653,0.0007666710880585015,-0.002561501692980528,-0.0013322612503543496,-9.818170547485352,0,0,28.38622283935547,1,1,760,800
1778627317.39963317,57605282,0,0.000801820307970047,0.0008531931089237332,0.0007859111065044999,-0.00129117991309613,-0.0019322920124977827,-9.81747055053711,0,0,28.38849449157715,1,1,1000,1000
1778627317.39963317,57605282,1,0.0009413518710061908,0.0007353271939791739,0.001038978574797511,-0.0017171807121485472,-0.001160584855824709,-9.816730499267578,0,0,28.388439178466797,1,1,760,800
1778627317.43961716,57645266,0,0.0008505955338478088,0.000819031847640872,0.0007988279685378075,-0.0008273031562566757,-0.001528720953501761,-9.816726684570312,0,0,28.390708923339844,1,1,1000,1000
1778627317.43961716,57645266,1,0.00047475931933149695,0.0006755415233783424,0.0007279260316863656,-0.000739912036806345,0.00025984548847191036,-9.816079139709473,0,0,28.390653610229492,1,1,760,800
1778627317.47960114,57685250,0,0.0008598560816608369,0.0007750765653327107,0.0008216165006160736,2.367948036408052e-05,-0.002047593705356121,-9.81849479675293,0,0,28.39292335510254,1,1,1000,1000
1778627317.47960114,57685250,1,0.000832429388538003,0.0008926793816499412,0.0006687372224405408,0.0018706497503444552,0.00022248318418860435,-9.819122314453125,0,0,28.392868041992188,1,1,760,800
1778627317.51958513,57725234,0,0.0007309382781386375,0.0008218053844757378,0.0007456224411725998,-0.0005249257665127516,-0.0014998086262494326,-9.816837310791016,0,0,28.3951358795166,1,1,1000,1000
1778627317.51958513,57725234,1,0.0007952463929541409,0.0006927865906618536,0.0006611583521589637,0.0014495734358206391,-0.0014964193105697632,-9.81635856628418,0,0,28.395082473754883,1,1,760,800
1778627317.55956912,57765218,0,0.000855275196954608,0.0008675177814438939,0.0007793436525389552,-0.0014223026810213923,-0.001626724610105157,-9.817030906677246,0,0,28.397294998168945,1,1,1000,1000
1778627317.55956912,57765218,1,0.0009891389636322856,0.000853349338285625,0.0007399465539492667,-0.002190179890021682,-0.0028422933537513018,-9.81741714477539,0,0,28.397294998168945,1,1,760,800
1778627317.59955311,57805202,0,0.0007771849632263184,0.000746671692468226,0.0008303950307890773,-0.00046285655116662383,-0.0007817898876965046,-9.816896438598633,0,0,28.39950942993164,1,1,1000,1000
1778627317.59955311,57805202,1,0.0006592641002498567,0.0008961426210589707,0.0008091824711300433,-0.0010811740066856146,0.0006842953152954578,-9.818011283874512,0,0,28.39950942993164,1,1,760,800
1778627317.63953710,57845186,0,0.0008133906521834433,0.0008556804968975484,0.0007631658809259534,-0.0013112956658005714,-0.001576542854309082,-9.817421913146973,0,0,28.401721954345703,1,1,1000,1000
1778627317.63953710,57845186,1,0.0008626867784187198,0.0010374787962064147,0.0007572109461762011,-0.0026118529494851828,5.044890713179484e-06,-9.818662643432617,0,0,28.401721954345703,1,1,760,800
1778627317.67952108,57885170,0,0.0007788548246026039,0.0007989988080225885,0.0007845801883377135,-0.0006982488557696342,-0.0007013558060862124,-9.817498207092285,0,0,28.403934478759766,1,1,1000,1000
1778627317.67952108,57885170,1,0.000555013888515532,0.0010863060597330332,0.0009322165278717875,-0.0017555106896907091,0.001210954156704247,-9.815864562988281,0,0,28.403934478759766,1,1,760,800
1778627317.71950507,57925154,0,0.0007828082889318466,0.0008042227709665895,0.0008136334363371134,-0.0008310721023008227,-0.0008338698535226285,-9.817774772644043,0,0,28.406147003173828,1,1,1000,1000
1778627317.71950507,57925154,1,0.0007319895667023957,0.0005823486717417836,0.0008987519540823996,0.00020870545995421708,0.0003481385065242648,-9.814254760742188,0,0,28.406147003173828,1,1,760,800
1778627317.75948906,57965138,0,0.0007955130422487855,0.0008342229411937296,0.0008433287730440497,-0.001860438147559762,-0.0010721299331635237,-9.818408012390137,0,0,28.40835952758789,1,1,1000,1000
1778627317.75948906,57965138,1,0.0009696310735307634,0.0007551025482825935,0.0006696560885757208,-0.0021671252325177193,-0.0012039700523018837,-9.8158540725708,0,0,28.40835952758789,1,1,760,800
1778627317.79947305,58005122,0,0.0007403877680189908,0.0007868531392887235,0.0008633183315396309,-0.0013343661557883024,-0.002153521403670311,-9.818015098571777,0,0,28.410572052001953,1,1,1000,1000
1778627317.79947305,58005122,1,0.0006975794094614685,0.0007096360204741359,0.0007520203362219036,-0.0016266298480331898,-0.001341657480224967,-9.816410064697266,0,0,28.410572052001953,1,1,760,800
1778627317.83945704,58045106,0,0.0008730572299100459,0.0008578340639360249,0.0008228789665736258,-0.0012322660768404603,-0.0005919270915910602,-9.817256927490234,0,0,28.412784576416016,1,1,1000,1000
1778627317.83945704,58045106,1,0.0007095277542248368,0.0007006946252658963,0.0008315359009429812,-0.0002966029569506645,-0.0027257208712399006,-9.815927505493164,0,0,28.412784576416016,1,1,760,800
1778627317.87944102,58085090,0,0.0008083194843493402,0.000855684804264456,0.00083203986287117,-0.0002032154006883502,-0.0014711504336446524,-9.81727409362793,0,0,28.414995193481445,1,1,1000,1000
1778627317.87944102,58085090,1,0.0008235402638092637,0.0008052130579017103,0.0006519858725368977,-0.0006873010424897075,-0.0009549603564664721,-9.820384979248047,0,0,28.414995193481445,1,1,760,800
1778627317.91942501,58125074,0,0.0008478171657770872,0.0007591093890368938,0.0007728206692263484,-0.001392435748130083,-0.000929707195609808,-9.817476272583008,0,0,28.417207717895508,1,1,1000,1000
1778627317.91942501,58125074,1,0.0006487888749688864,0.0008143373997882009,0.0009291663300246,-9.81539415079169e-05,8.755675662541762e-05,-9.820561408996582,0,0,28.417207717895508,1,1,760,800
1778627317.95940900,58165058,0,0.0008668218506500125,0.0007776974816806614,0.000781875743996352,-0.000740851100999862,-0.0023263213224709034,-9.817144393920898,0,0,28.41947364807129,1,1,1000,1000
1778627317.95940900,58165058,1,0.0006970306276343763,0.0010329713113605976,0.0007201269618235528,-0.00033438968239352107,-0.001245170016773045,-9.820089340209961,0,0,28.41947364807129,1,1,760,800
1778627317.99939299,58205042,0,0.0008006555144675076,0.0008131936774589121,0.0008739710319787264,-2.302306893398054e-05,-0.001388014992699027,-9.816967964172363,0,0,28.42168426513672,1,1,1000,1000
1778627317.99939299,58205042,1,0.0008421623497270048,0.0006147829699330032,0.0006729082087986171,-0.001629537669941783,0.0007420244510285556,-9.818370819091797,0,0,28.42168426513672,1,1,760,800
1778627318.03937721,58245026,0,0.0007978935027495027,0.0008405407425016165,0.0007880257326178253,-0.0008933871285989881,-0.002354922704398632,-9.818202018737793,0,0,28.423892974853516,1,1,1000,1000
1778627318.03937721,58245026,1,0.0009017183328978717,0.0009056659764610231,0.0009172168793156743,-0.0006090821116231382,5.497292659129016e-05,-9.817469596862793,0,0,28.423892974853516,1,1,760,800
1778627318.07936120,58285010,0,0.0009128559613600373,0.000794006627984345,0.0007778892759233713,4.797818837687373e-05,-0.00092931161634624,-9.818195343017578,0,0,28.426103591918945,1,1,1000,1000
1778627318.07936120,58285010,1,0.0009416723041795194,0.0006758536328561604,0.0005868480657227337,0.0017869514413177967,-0.0047564031556248665,-9.820233345031738,0,0,28.426103591918945,1,1,760,800
1778627318.11934519,58324994,0,0.0008388441056013107,0.0007625923026353121,0.0008116363314911723,-0.0011077744420617819,-0.0006764055578969419,-9.817547798156738,0,0,28.428258895874023,1,1,1000,1000
1778627318.11934519,58324994,1,0.0005751578719355166,0.0007855789735913277,0.0008138160919770598,-0.000932057504542172,-0.0028748856857419014,-9.816741943359375,0,0,28.428258895874023,1,1,760,800
1778627318.15932918,58364978,0,0.0008417064091190696,0.0008241310133598745,0.0008137837867252529,-0.001558640506118536,-0.0007256497628986835,-9.817066192626953,0,0,28.43046760559082,1,1,1000,1000
1778627318.15932918,58364978,1,0.000747389392927289,0.0008294148137792945,0.0007644634461030364,0.00046023886534385383,-0.002442610915750265,-9.816479682922363,0,0,28.43046760559082,1,1,760,800
1778627318.19931316,58404962,0,0.0008374762837775052,0.0007925560930743814,0.0008365673129446805,-0.0004883294459432364,-0.0013479969929903746,-9.817896842956543,0,0,28.432676315307617,1,1,1000,1000
1778627318.19931316,58404962,1,0.0008139571291394532,0.0007364485063590109,0.0007309343200176954,-0.004687666427344084,-0.0036315058823674917,-9.817138671875,0,0,28.432676315307617,1,1,760,800
1778627318.23929715,58444946,0,0.0007572388276457787,0.0007443961803801358,0.0008563999435864389,-0.0008653861004859209,-0.0006135945441201329,-9.817124366760254,0,0,28.434885025024414,1,1,1000,1000
1778627318.23929715,58444946,1,0.0008000927628017962,0.0008201059536077082,0.0006890172953717411,-0.0013927127001807094,-0.002482751850038767,-9.820390701293945,0,0,28.434885025024414,1,1,760,800
1778627318.27928114,58484930,0,0.0008581067668274045,0.0007956617046147585,0.0008510906482115388,-0.001543944701552391,-0.0004771574749611318,-9.8181734085083,0,0,28.437095642089844,1,1,1000,1000
1778627318.27928114,58484930,1,0.0008096697274595499,0.0008218140574172139,0.0008737468160688877,0.00037125489325262606,-0.0001895084569696337,-9.818918228149414,0,0,28.437095642089844,1,1,760,800
1778627318.31926513,58524914,0,0.000888352922629565,0.0008058256935328245,0.0007443739450536668,-0.0004366086213849485,-0.0004798538866452873,-9.81733226776123,0,0,28.439302444458008,1,1,1000,1000
1778627318.31926513,58524914,1,0.0008637271821498871,0.0007921067299321294,0.0009067095234058797,-0.00016993486497085541,-0.0021608411334455013,-9.818562507629395,0,0,28.439302444458008,1,1,760,800
1778627318.35924911,58564898,0,0.0008828355930745602,0.0007316332194022834,0.0008023949339985847,0.0001328424405073747,-0.0016952718142420053,-9.817586898803711,0,0,28.441509246826172,1,1,1000,1000
1778627318.35924911,58564898,1,0.0011578418780118227,0.0009949574014171958,0.0008343781228177249,-0.00342675787396729,-0.0034009048249572515,-9.817522048950195,0,0,28.441509246826172,1,1,760,800
1778627318.39923310,58604882,0,0.0008965827291831374,0.0007189933094196022,0.0008493014611303806,-0.0001983031106647104,-0.0008498977986164391,-9.81689453125,0,0,28.44371795654297,1,1,1000,1000
1778627318.39923310,58604882,1,0.0005555868847295642,0.0009178302716463804,0.000854531186632812,-0.001149861142039299,0.0006563815986737609,-9.816719055175781,0,0,28.44371795654297,1,1,760,800
1778627318.43921709,58644866,0,0.0007804479100741446,0.000762044102884829,0.0007970742881298065,-0.0013367284554988146,-0.00013297758414410055,-9.817447662353516,0,0,28.445926666259766,1,1,1000,1000
1778627318.43921709,58644866,1,0.0007160024833865464,0.0005391666200011969,0.0008181818993762136,0.0003828750632237643,-0.0022007031366229057,-9.818726539611816,0,0,28.445926666259766,1,1,760,800
1778627318.47920108,58684850,0,0.0007875657174736261,0.000812105368822813,0.0007431627018377185,-0.0023865527473390102,-0.0007163220434449613,-9.817184448242188,0,0,28.448131561279297,1,1,1000,1000
1778627318.47920108,58684850,1,0.0005340003990568221,0.00048473698552697897,0.0007135621272027493,0.0002066635643132031,-0.0018135677091777325,-9.81705379486084,0,0,28.448131561279297,1,1,760,800
1778627318.51918507,58724834,0,0.0008653876720927656,0.0008356880862265825,0.000846139038912952,-0.0008557351538911462,-0.001205712789669633,-9.818402290344238,0,0,28.45033836364746,1,1,1000,1000
1778627318.51918507,58724834,1,0.0008186046034097672,0.0006265311967581511,0.0007429920369759202,-0.001942231087014079,-0.000287504808511585,-9.817647933959961,0,0,28.45033836364746,1,1,760,800
1778627318.56000209,58765651,0,0.0008093737997114658,0.0008123769075609744,0.0008534163935109973,-0.0014766608364880085,-0.0016471080016344786,-9.816940307617188,0,0,28.45260238647461,1,1,1000,1000
1778627318.56000209,58765651,1,0.0008779539493843913,0.0009203611989505589,0.0009347090381197631,-0.00011558834376046434,-0.0015436718240380287,-9.8163423538208,0,0,28.45260238647461,1,1,760,800
1778627318.59998608,58805635,0,0.0007958139758557081,0.000849077187012881,0.0008658215519972146,-0.0010341699235141277,-0.000534028047695756,-9.817754745483398,0,0,28.45480728149414,1,1,1000,1000
1778627318.59998608,58805635,1,0.0006764329737052321,0.0008653822587803006,0.0010332686360925436,-0.0021394225768744946,-0.0020514926873147488,-9.816496849060059,0,0,28.45480728149414,1,1,760,800
1778627318.63997006,58845619,0,0.0007931606378406286,0.0008281980408355594,0.000797077314928174,-0.0008343742229044437,-0.0006818004185333848,-9.81764030456543,0,0,28.457014083862305,1,1,1000,1000
1778627318.63997006,58845619,1,0.0008712003473192453,0.000602321291808039,0.001008188701234758,-0.0005449579330161214,-0.0001408771495334804,-9.812179565429688,0,0,28.457014083862305,1,1,760,800
1778627318.67995405,58885603,0,0.0008166275219991803,0.0008840531227178872,0.0008633005782030523,-0.0011854975018650293,-0.00016574980691075325,-9.81649398803711,0,0,28.459218978881836,1,1,1000,1000
1778627318.67995405,58885603,1,0.0006212340667843819,0.0008756460738368332,0.0007294785464182496,-0.00010003321222029626,-0.0013357133138924837,-9.816448211669922,0,0,28.459218978881836,1,1,760,800
1778627318.71993804,58925587,0,0.00081089191371575,0.000781285110861063,0.0008631814271211624,-0.0009738956578075886,-0.0009188640397042036,-9.817306518554688,0,0,28.461423873901367,1,1,1000,1000
1778627318.71993804,58925587,1,0.001041050418280065,0.0007305584149435163,0.0008377109188586473,0.0009319444070570171,-0.0019373559625819325,-9.814109802246094,0,0,28.461423873901367,1,1,760,800
1778627318.75992203,58965571,0,0.0008183340542018414,0.0008581303991377354,0.0008637128048576415,-0.0009046223713085055,-0.00036274403100833297,-9.817034721374512,0,0,28.4636287689209,1,1,1000,1000
1778627318.75992203,58965571,1,0.0008976501412689686,0.0008792240987531841,0.000794369145296514,-0.0017403272213414311,-0.0014893047045916319,-9.820246696472168,0,0,28.4636287689209,1,1,760,800
1778627318.79990602,59005555,0,0.0008171626250259578,0.000805283198133111,0.0008606609189882874,-0.0005251042312011123,-0.0003295775386504829,-9.817512512207031,0,0,28.46583366394043,1,1,1000,1000
1778627318.79990602,59005555,1,0.001029311679303646,0.0008018825901672244,0.0007631024345755577,-0.0002293497382197529,-0.0024881232529878616,-9.817273139953613,0,0,28.46583366394043,1,1,760,800
1778627318.83989000,59045539,0,0.0007429769029840827,0.0008430377347394824,0.0007579935481771827,-0.0016301344148814678,-0.0019102292135357857,-9.817384719848633,0,0,28.46803855895996,1,1,1000,1000
1778627318.83989000,59045539,1,0.0009711575694382191,0.0008964876178652048,0.0009158335160464048,0.0013287446927279234,-0.00042910181218758225,-9.818881034851074,0,0,28.46803855895996,1,1,760,800
1778627318.87987399,59085523,0,0.0008704360225237906,0.0008958826656453311,0.000862128334119916,-0.0008441359386779368,-0.0024401985574513674,-9.817525863647461,0,0,28.47024154663086,1,1,1000,1000
1778627318.87987399,59085523,1,0.0007557341596111655,0.0010136859491467476,0.0007990110316313803,-0.0019419958116486669,-0.0005254415445961058,-9.816558837890625,0,0,28.47024154663086,1,1,760,800
1778627318.91985822,59125507,0,0.0008727958193048835,0.0007957156049087644,0.0007821211474947631,-0.0013321106089279056,-0.0005140684079378843,-9.816182136535645,0,0,28.47244644165039,1,1,1000,1000
1778627318.91985822,59125507,1,0.0008430955349467695,0.0008742142817936838,0.0009693376487120986,-0.002163100754842162,-0.0011074708309024572,-9.81863021850586,0,0,28.47244644165039,1,1,760,800
1778627318.95984221,59165491,0,0.0008881635149009526,0.0007590059540234506,0.0008508558385074139,-0.0028487667441368103,-0.0006073318654671311,-9.817726135253906,0,0,28.47464942932129,1,1,1000,1000
1778627318.95984221,59165491,1,0.0008330337004736066,0.0006112762494012713,0.0005746351671405137,-0.0037981097120791674,-0.001712147262878716,-9.81692123413086,0,0,28.47464942932129,1,1,760,800
1778627318.99982619,59205475,0,0.0007765094051137567,0.0008879006491042674,0.000834384118206799,-0.0007990674930624664,-0.0010571859311312437,-9.817761421203613,0,0,28.476852416992188,1,1,1000,1000
1778627318.99982619,59205475,1,0.0005991258658468723,0.0007462576613761485,0.0007213616045191884,-0.0031051950063556433,0.00018711359007284045,-9.81753158569336,0,0,28.476797103881836,1,1,760,800
1778627319.03981018,59245459,0,0.0008632591343484819,0.0008296488085761666,0.0008827134734019637,-0.001192176714539528,0.0006148261018097401,-9.816973686218262,0,0,28.479055404663086,1,1,1000,1000
1778627319.03981018,59245459,1,0.0008782256627455354,0.0007979222573339939,0.0007818292360752821,-0.0011631111847236753,0.002870409283787012,-9.81717586517334,0,0,28.479000091552734,1,1,760,800
1778627319.07979417,59285443,0,0.0008068074239417911,0.0007718653068877757,0.0008208652143366635,-0.0008541665156371891,-0.001618918962776661,-9.817411422729492,0,0,28.481258392333984,1,1,1000,1000
1778627319.07979417,59285443,1,0.0008956128731369972,0.0007456215098500252,0.0007651977939531207,-0.002141810953617096,0.0012181894853711128,-9.816944122314453,0,0,28.481203079223633,1,1,760,800
1778627319.11977816,59325427,0,0.0008179430733434856,0.0007319893920794129,0.0008167605847120285,-0.00026166578754782677,0.00017755567387212068,-9.818373680114746,0,0,28.483461380004883,1,1,1000,1000
1778627319.11977816,59325427,1,0.0007838804740458727,0.0005606364575214684,0.0009849349735304713,-0.0023252388928085566,-0.0018157231388613582,-9.81698226928711,0,0,28.48340606689453,1,1,760,800
1778627319.15976214,59365411,0,0.0008327127434313297,0.0008536666864529252,0.0008167645428329706,-0.0005989141063764691,-0.000501507252920419,-9.818166732788086,0,0,28.48566246032715,1,1,1000,1000
1778627319.15976214,59365411,1,0.0008269096724689007,0.0009589925175532699,0.0009529251838102937,-0.002288325224071741,-0.0015471598599106073,-9.819441795349121,0,0,28.485607147216797,1,1,760,800
1778627319.19974613,59405395,0,0.0007895181188359857,0.0007679177215322852,0.0008289171964861453,-0.0011789316777139902,-0.0014186331536620855,-9.817734718322754,0,0,28.487865447998047,1,1,1000,1000
1778627319.19974613,59405395,1,0.0008026750292629004,0.0009318458614870906,0.0007771665696054697,-0.002824792405590415,-0.0005574218230322003,-9.81683349609375,0,0,28.487810134887695,1,1,760,800
1778627319.23973012,59445379,0,0.0008812876185402274,0.0008787387050688267,0.0007915119640529156,-0.0004490199207793921,-0.00044109090231359005,-9.817447662353516,0,0,28.49006462097168,1,1,1000,1000
1778627319.23973012,59445379,1,0.0009124373318627477,0.0008307592361234128,0.0009642166551202536,0.0007586705032736063,0.000410984706832096,-9.816680908203125,0,0,28.49001121520996,1,1,760,800
1778627319.27971411,59485363,0,0.0008245825883932412,0.0009327360312454402,0.0008097635582089424,-0.0004208642349112779,-0.0010555131593719125,-9.817283630371094,0,0,28.492267608642578,1,1,1000,1000
1778627319.27971411,59485363,1,0.0007965029217302799,0.0008579684072174132,0.0009179351036436856,-0.002381814643740654,-0.0010536722838878632,-9.816530227661133,0,0,28.492212295532227,1,1,760,800
1778627319.31969810,59525347,0,0.0009040627046488225,0.0008314314181916416,0.0009302472462877631,-0.000418918818468228,-0.0007547982968389988,-9.816821098327637,0,0,28.494468688964844,1,1,1000,1000
1778627319.31969810,59525347,1,0.0007187722949311137,0.0008682908955961466,0.0008723774226382375,-0.0005632602260448039,0.0018757623620331287,-9.816962242126465,0,0,28.494413375854492,1,1,760,800
1778627319.35968208,59565331,0,0.0007745657349005342,0.0008764344966039062,0.0008778829360380769,-0.001472282106988132,-0.0011582114966586232,-9.818156242370605,0,0,28.496667861938477,1,1,1000,1000
1778627319.35968208,59565331,1,0.0007331363158300519,0.0009025229373946786,0.0008130143978632987,-0.0018505733460187912,-0.00034047808730974793,-9.81648063659668,0,0,28.496612548828125,1,1,760,800
1778627319.39966607,59605315,0,0.0008255206630565226,0.0008282177150249481,0.0008657707367092371,-0.0015720383962616324,0.0004323426110204309,-9.817619323730469,0,0,28.498868942260742,1,1,1000,1000
1778627319.39966607,59605315,1,0.00047183569404296577,0.0006651563453488052,0.0008873330662027001,0.0014498878736048937,0.0003762523119803518,-9.818167686462402,0,0,28.49881362915039,1,1,760,800
1778627319.43965006,59645299,0,0.000866419286467135,0.0008202285971492529,0.0008425506530329585,-0.0013139051152393222,-0.00080094113945961,-9.817298889160156,0,0,28.501070022583008,1,1,1000,1000
1778627319.43965006,59645299,1,0.0009305650601163507,0.0008657807484269142,0.0009217211627401412,-0.003644132986664772,-0.00108286552131176,-9.818639755249023,0,0,28.501012802124023,1,1,760,800
1778627319.47963405,59685283,0,0.0008651987882331014,0.0007598934462293983,0.0007771853706799448,-0.0007125828415155411,-0.0006778652896173298,-9.817965507507324,0,0,28.50326919555664,1,1,1000,1000
1778627319.47963405,59685283,1,0.0009556857985444367,0.0010518466588109732,0.0006924921763129532,-0.003543795784935355,-0.0013478160835802555,-9.815658569335938,0,0,28.50321388244629,1,1,760,800
1778627319.51961803,59725267,0,0.0008678098092786968,0.0008075557998381555,0.000863629044033587,-0.00014606078912038356,-0.0006549681420437992,-9.817878723144531,0,0,28.505468368530273,1,1,1000,1000
1778627319.51961803,59725267,1,0.0007534754113294184,0.0010596627835184336,0.0009259568178094923,-0.00018572455155663192,0.0006267788121476769,-9.816141128540039,0,0,28.505413055419922,1,1,760,800
1778627319.55960202,59765251,0,0.0008059063111431897,0.0009148949757218361,0.000885595625732094,-0.001692524179816246,-0.0015671378932893276,-9.81640911102295,0,0,28.507667541503906,1,1,1000,1000
1778627319.55960202,59765251,1,0.0008460363605991006,0.000738335307687521,0.0009596642339602113,-0.0008879566448740661,-0.0018444819143041968,-9.817466735839844,0,0,28.507612228393555,1,1,760,800
1778627319.59958601,59805235,0,0.0008736595627851784,0.0007933917222544551,0.0007794412085786462,-0.0015454590320587158,-0.0003059052978642285,-9.816437721252441,0,0,28.50986671447754,1,1,1000,1000
1778627319.59958601,59805235,1,0.0007644932484254241,0.0010036090388894081,0.001012287801131606,-0.0006035681581124663,-0.0013804039917886257,-9.817052841186523,0,0,28.509811401367188,1,1,760,800
1778627319.63957000,59845219,0,0.0008375839679501951,0.0008657211437821388,0.0008040039101615548,-0.0011360074859112501,-0.0007080809446051717,-9.81820011138916,0,0,28.512008666992188,1,1,1000,1000
1778627319.63957000,59845219,1,0.0007841574843041599,0.00072170962812379,0.0008173758396878839,0.001837150426581502,-0.00026791333220899105,-9.818277359008789,0,0,28.512008666992188,1,1,760,800
1778627319.67955399,59885203,0,0.000803188537247479,0.0008085822337307036,0.0008266518707387149,-0.000671866990160197,-0.0009960836032405496,-9.816848754882812,0,0,28.51420783996582,1,1,1000,1000
1778627319.67955399,59885203,1,0.0006833148654550314,0.0009087734506465495,0.0010815251152962446,-0.0013284580782055855,0.0005236986326053739,-9.817645072937012,0,0,28.51420783996582,1,1,760,800
1778627319.71953821,59925187,0,0.0008229672093875706,0.0008320105262100697,0.0007755739497952163,-0.0015819675754755735,-0.0013553390745073557,-9.817927360534668,0,0,28.51640510559082,1,1,1000,1000
1778627319.71953821,59925187,1,0.0007242360152304173,0.0007617904921062291,0.0008349145064130425,0.0005660774186253548,-0.0015936506679281592,-9.817453384399414,0,0,28.51640510559082,1,1,760,800
1778627319.75952220,59965171,0,0.0009176979074254632,0.0008414055919274688,0.0008315853774547577,-0.0005500162369571626,-0.0009975014254450798,-9.817404747009277,0,0,28.518604278564453,1,1,1000,1000
1778627319.75952220,59965171,1,0.0008065904839895666,0.0008801046060398221,0.0008411598391830921,-0.002920316532254219,-0.002679873025044799,-9.81471061706543,0,0,28.518604278564453,1,1,760,800
1778627319.79950619,60005155,0,0.0008904721471481025,0.0008230766397900879,0.000859751075040549,-0.0015705678379163146,-0.0014538583345711231,-9.816946029663086,0,0,28.520801544189453,1,1,1000,1000
1778627319.79950619,60005155,1,0.0008754459558986127,0.000650478876195848,0.0008159364806488156,-0.0006043572211638093,-0.0014385480899363756,-9.817030906677246,0,0,28.520801544189453,1,1,760,800
1778627319.83949018,60045139,0,0.0007591105531901121,0.0008359503117389977,0.0008231350802816451,-0.001005660044029355,-0.0016637251246720552,-9.816923141479492,0,0,28.522998809814453,1,1,1000,1000
1778627319.83949018,60045139,1,0.000982852652668953,0.001176589634269476,0.0011410546721890569,-0.0015991928521543741,-0.001038775430060923,-9.816621780395508,0,0,28.522998809814453,1,1,760,800
1778627319.87947416,60085123,0,0.0008203196339309216,0.0009104468626901507,0.0008970805210992694,-0.001477213460020721,-0.0014360153581947088,-9.81706428527832,0,0,28.525196075439453,1,1,1000,1000
1778627319.87947416,60085123,1,0.0008030327153392136,0.0007266922038979828,0.0008839303045533597,0.00010026800009654835,-0.001187953632324934,-9.818243980407715,0,0,28.525196075439453,1,1,760,800
1778627319.91945815,60125107,0,0.0008604091126471758,0.0008692535338923335,0.0008658411097712815,-0.0014987315516918898,-0.0008248045342043042,-9.816581726074219,0,0,28.52739143371582,1,1,1000,1000
1778627319.91945815,60125107,1,0.0009017084375955164,0.0008707248489372432,0.0007570999441668391,0.0012069063959643245,-0.00027927415794692934,-9.821176528930664,0,0,28.52739143371582,1,1,760,800
1778627319.95944214,60165091,0,0.0008425841806456447,0.0007559146615676582,0.0008774156449362636,-0.0017742044292390347,-0.0012569031678140163,-9.817338943481445,0,0,28.529586791992188,1,1,1000,1000
1778627319.95944214,60165091,1,0.0008286595111712813,0.0008547519682906568,0.0006938509177416563,-0.0016891633858904243,-0.0022601375821977854,-9.816854476928711,0,0,28.529586791992188,1,1,760,800
1778627319.99942613,60205075,0,0.0008863398688845336,0.0009014679817482829,0.0008173203677870333,-0.0013445619260892272,-0.0012152858544141054,-9.817527770996094,0,0,28.531782150268555,1,1,1000,1000
1778627319.99942613,60205075,1,0.0007831533439457417,0.0008500465773977339,0.0007440678891725838,0.0023054941557347775,0.00035047667915932834,-9.818565368652344,0,0,28.531782150268555,1,1,760,800
1778627320.03941011,60245059,0,0.0008364913519471884,0.0008504814468324184,0.000897303456440568,-0.0010783930774778128,-0.001164315501227975,-9.817550659179688,0,0,28.534032821655273,1,1,1000,1000
1778627320.03941011,60245059,1,0.0007890556589700282,0.0008115182863548398,0.0007721100701019168,-0.001058174530044198,0.0011400480289012194,-9.818674087524414,0,0,28.534032821655273,1,1,760,800
1778627320.07939410,60285043,0,0.0008487568120472133,0.0008932638447731733,0.0008312041172757745,-0.0006355351652018726,-0.001207752269692719,-9.818086624145508,0,0,28.53622817993164,1,1,1000,1000
1778627320.07939410,60285043,1,0.0008429595036432147,0.0006395562668330967,0.0008275305735878646,-0.0010341659653931856,-0.0005186349153518677,-9.818511962890625,0,0,28.53622817993164,1,1,760,800
1778627320.11937809,60325027,0,0.0007832228438928723,0.000925544067285955,0.0008752260473556817,-0.0017855940386652946,-0.0015716335037723184,-9.817604064941406,0,0,28.538423538208008,1,1,1000,1000
1778627320.11937809,60325027,1,0.0006528655649162829,0.0008623647736385465,0.0007899670163169503,-0.0013562485110014677,0.0003625694662332535,-9.817708969116211,0,0,28.538423538208008,1,1,760,800
1778627320.15936208,60365011,0,0.0008462512632831931,0.000862402084749192,0.0008909885073080659,-0.0004133994225412607,-0.000670834444463253,-9.817782402038574,0,0,28.540618896484375,1,1,1000,1000
1778627320.15936208,60365011,1,0.0008194649126380682,0.0008895185892470181,0.0007385654025711119,-0.0009879411663860083,-0.0007944230455905199,-9.816072463989258,0,0,28.540618896484375,1,1,760,800
1778627320.19934607,60404995,0,0.0008666295325383544,0.0008524799486622214,0.0008639302104711533,-0.0005586593179032207,-0.0009529232047498226,-9.818559646606445,0,0,28.54275894165039,1,1,1000,1000
1778627320.19934607,60404995,1,0.0008577737607993186,0.0007277303957380354,0.0006633269367739558,-0.0028179497458040714,-0.001573455287143588,-9.819061279296875,0,0,28.54275894165039,1,1,760,800
1778627320.23933005,60444979,0,0.0007870972622185946,0.000904059736058116,0.0007307411869987845,-0.0014331454876810312,-0.0007306233164854348,-9.817558288574219,0,0,28.544952392578125,1,1,1000,1000
1778627320.23933005,60444979,1,0.0008123628213070333,0.000784917501732707,0.0008706196094863117,-0.002912368392571807,0.0005381132941693068,-9.815555572509766,0,0,28.544952392578125,1,1,760,800
1778627320.27931404,60484963,0,0.0008334140293300152,0.0008379372884519398,0.0008626717026345432,0.00011382074444554746,-0.0011686659418046474,-9.817586898803711,0,0,28.54714584350586,1,1,1000,1000
1778627320.27931404,60484963,1,0.0009339965181425214,0.0008731958223506808,0.0010153638431802392,-0.0011489697499200702,-0.0011331617133691907,-9.819892883300781,0,0,28.54714584350586,1,1,760,800
1778627320.31929803,60524947,0,0.0008278318564407527,0.0009442204609513283,0.0008441082900390029,-0.00043816695688292384,-0.0006219618953764439,-9.818105697631836,0,0,28.549339294433594,1,1,1000,1000
1778627320.31929803,60524947,1,0.0008721873164176941,0.0008069840259850025,0.0011872752802446485,-0.000890354800503701,0.00024344561097677797,-9.816699981689453,0,0,28.549339294433594,1,1,760,800
1778627320.35928202,60564931,0,0.0008338324842043221,0.0008351443102583289,0.0008930629119277,-0.0016554903704673052,-0.0010578427463769913,-9.816863059997559,0,0,28.551532745361328,1,1,1000,1000
1778627320.35928202,60564931,1,0.0007493270677514374,0.0007382904877886176,0.0009000366553664207,-0.0006446907063946128,-0.002640067134052515,-9.816618919372559,0,0,28.551532745361328,1,1,760,800
1778627320.39926600,60604915,0,0.0008121863938868046,0.0008948512258939445,0.0008935926016420126,-0.0020313342101871967,-0.0011533680371940136,-9.818405151367188,0,0,28.553726196289062,1,1,1000,1000
1778627320.39926600,60604915,1,0.0007991010788828135,0.0008761347271502018,0.0010312353260815144,-0.0005998896667733788,-0.0002650185488164425,-9.818254470825195,0,0,28.553726196289062,1,1,760,800
1778627320.43924999,60644899,0,0.0009021104197017848,0.000775498803704977,0.0008205563062801957,-0.0010946675902232528,-0.0010637282393872738,-9.816813468933105,0,0,28.555919647216797,1,1,1000,1000
1778627320.43924999,60644899,1,0.0005501329433172941,0.0008765156380832195,0.0010159863159060478,-0.0017537482781335711,-0.0040968433022499084,-9.815954208374023,0,0,28.555919647216797,1,1,760,800
1778627320.47923422,60684883,0,0.0008265440701507032,0.0008724782965146005,0.0007768309442326427,-0.0017830913420766592,-0.001846639672294259,-9.81663703918457,0,0,28.5581111907959,1,1,1000,1000
1778627320.47923422,60684883,1,0.0005538210389204323,0.0003129742690362036,0.00080797856207937,0.00019772237283177674,-0.0012435169192031026,-9.81602668762207,0,0,28.5581111907959,1,1,760,800
1778627320.51921821,60724867,0,0.0008442732505500317,0.000863103021401912,0.0008399409707635641,-0.001146930386312306,-0.000593918957747519,-9.817611694335938,0,0,28.560302734375,1,1,1000,1000
1778627320.51921821,60724867,1,0.0009235605830326676,0.0007461630157195032,0.000620427483227104,0.001182706211693585,-0.0005500799743458629,-9.815895080566406,0,0,28.560302734375,1,1,760,800
1778627320.55920219,60764851,0,0.0008690530667081475,0.0009476775885559618,0.0008267660159617662,-0.0010440511396154761,-0.0017520982073619962,-9.817989349365234,0,0,28.562496185302734,1,1,1000,1000
1778627320.55920219,60764851,1,0.0006498369621112943,0.0005826817359775305,0.001043200958520174,-0.0002484450815245509,-0.0007707939948886633,-9.817771911621094,0,0,28.562496185302734,1,1,760,800
1778627320.59918618,60804835,0,0.0008218566654250026,0.0008157141855917871,0.0008001960231922567,-0.0013314859243109822,-0.0009685259428806603,-9.819052696228027,0,0,28.564685821533203,1,1,1000,1000
1778627320.59918618,60804835,1,0.0011240254389122128,0.0006486976053565741,0.0009458739077672362,0.0011833724565804005,-0.0009605869418010116,-9.81645679473877,0,0,28.564685821533203,1,1,760,800
1778627320.64000320,60845652,0,0.0008214181871153414,0.0008656874997541308,0.0008339057094417512,-0.0016740758437663317,-0.0010153765324503183,-9.81706714630127,0,0,28.566932678222656,1,1,1000,1000
1778627320.64000320,60845652,1,0.0007888575782999396,0.0008356283069588244,0.0007866178639233112,-0.0013297944096848369,-0.0005359835922718048,-9.817570686340332,0,0,28.566932678222656,1,1,760,800
1778627320.67998719,60885636,0,0.0008331475546583533,0.0008128230692818761,0.0008222163305617869,-0.0018057420384138823,-0.0009974191198125482,-9.81796932220459,0,0,28.569124221801758,1,1,1000,1000
1778627320.67998719,60885636,1,0.0009143230854533613,0.0008929520263336599,0.0006235635373741388,-0.0006638366030529141,-0.0001254355302080512,-9.817695617675781,0,0,28.569124221801758,1,1,760,800
1778627320.71997118,60925620,0,0.0008911674958653748,0.00084364612121135,0.0008904520072974265,-0.0017874527256935835,-0.001809675362892449,-9.818624496459961,0,0,28.57131576538086,1,1,1000,1000
1778627320.71997118,60925620,1,0.0009289547451771796,0.0009080055169761181,0.0011510357726365328,-0.00042440055403858423,-0.0007957469788379967,-9.81879711151123,0,0,28.57131576538086,1,1,760,800
1778627320.75995517,60965604,0,0.000977344810962677,0.0008824655087664723,0.0008453220361843705,-0.000909326015971601,-0.000835383019875735,-9.816683769226074,0,0,28.573505401611328,1,1,1000,1000
1778627320.75995517,60965604,1,0.0008683886844664812,0.0008624653564766049,0.0009544546483084559,-0.0005503501161001623,-0.00036657077725976706,-9.817413330078125,0,0,28.573505401611328,1,1,760,800
1778627320.79993916,61005588,0,0.0007993586477823555,0.0008392472518607974,0.0008082756539806724,-0.0011507439194247127,-0.0006500424351543188,-9.817628860473633,0,0,28.575695037841797,1,1,1000,1000
1778627320.79993916,61005588,1,0.0010512772714719176,0.0008490041363984346,0.0008901412365958095,0.0011388588463887572,-0.0003952757688239217,-9.81644058227539,0,0,28.575695037841797,1,1,760,800
1778627320.83992314,61045572,0,0.0008588518248870969,0.0008909214520826936,0.0008783782832324505,-0.0009342626435682178,-0.001530792796984315,-9.817056655883789,0,0,28.577884674072266,1,1,1000,1000
1778627320.83992314,61045572,1,0.0007013698341324925,0.0006988136447034776,0.0009763545822352171,-0.0009455494000576437,-0.0007139348890632391,-9.819123268127441,0,0,28.577884674072266,1,1,760,800
1778627320.87990713,61085556,0,0.0008704352076165378,0.0008823872194625437,0.0008249441161751747,-0.001233367482200265,-0.0011863582767546177,-9.818052291870117,0,0,28.580074310302734,1,1,1000,1000
1778627320.87990713,61085556,1,0.0010452395072206855,0.0007557071512565017,0.0007459274493157864,-0.0010650702752172947,-0.0007635038928128779,-9.817079544067383,0,0,28.580074310302734,1,1,760,800
1778627320.91989112,61125540,0,0.0008492653141729534,0.0008076266385614872,0.0008843360119499266,-0.0014181090518832207,-0.0010091005824506283,-9.81759262084961,0,0,28.582263946533203,1,1,1000,1000
1778627320.91989112,61125540,1,0.0008259682217612863,0.000742226024158299,0.0009134846623055637,-0.002145742531865835,-0.001783581916242838,-9.817496299743652,0,0,28.582263946533203,1,1,760,800
1778627320.95987511,61165524,0,0.0008215122506953776,0.0009079072042368352,0.0009138575405813754,-0.0008620801381766796,-0.0020849911961704493,-9.817102432250977,0,0,28.58445167541504,1,1,1000,1000
1778627320.95987511,61165524,1,0.0007436778396368027,0.0007576691568829119,0.0007132568280212581,0.002132791094481945,0.0006968142697587609,-9.816081047058105,0,0,28.58445167541504,1,1,760,800
1778627320.99985909,61205508,0,0.0007861979538574815,0.0008963023428805172,0.0008713319548405707,-0.0003654690517578274,-0.0007075266330502927,-9.81785774230957,0,0,28.586639404296875,1,1,1000,1000
1778627320.99985909,61205508,1,0.0008633440011180937,0.0008022167021408677,0.001094423234462738,-0.0021667806431651115,-0.000570700503885746,-9.819510459899902,0,0,28.586639404296875,1,1,760,800
1778627321.03984308,61245492,0,0.0009022360318340361,0.0009200499625876546,0.0008770260028541088,-0.0004905582754872739,-0.0013220782857388258,-9.816688537597656,0,0,28.588829040527344,1,1,1000,1000
1778627321.03984308,61245492,1,0.0008624008623883128,0.0009679155191406608,0.0006203287630341947,-0.002923609921708703,-0.00011513137724250555,-9.81716537475586,0,0,28.588829040527344,1,1,760,800
1778627321.07982707,61285476,0,0.0007608557934872806,0.0008366117835976183,0.000768172147218138,-0.0005987734766677022,-0.0006509298691526055,-9.817699432373047,0,0,28.59101676940918,1,1,1000,1000
1778627321.07982707,61285476,1,0.0008627218194305897,0.0007667477475479245,0.0009424369200132787,0.00043422949966043234,0.0005397525965236127,-9.818230628967285,0,0,28.59096336364746,1,1,760,800
1778627321.11981106,61325460,0,0.0009604422375559807,0.0008314527221955359,0.0007794218836352229,-0.0006037107086740434,-0.000357480370439589,-9.818053245544434,0,0,28.593204498291016,1,1,1000,1000
1778627321.11981106,61325460,1,0.0007098677451722324,0.0009981193579733372,0.0011928786989301443,0.0011658110888674855,-0.0013705044984817505,-9.815816879272461,0,0,28.593151092529297,1,1,760,800
1778627321.15979505,61365444,0,0.0008550837519578636,0.000863502558786422,0.0008210446685552597,-0.001004127087071538,-0.002486106241121888,-9.816898345947266,0,0,28.59539222717285,1,1,1000,1000
1778627321.15979505,61365444,1,0.0007278703851625323,0.0008671964169479907,0.000741390569601208,-0.00224120169878006,-0.0011101068230345845,-9.821165084838867,0,0,28.5953369140625,1,1,760,800
1778627321.19977903,61405428,0,0.0009251730516552925,0.0008048177696764469,0.0009287857683375478,-0.001689212047494948,-0.0011044148122891784,-9.817200660705566,0,0,28.597579956054688,1,1,1000,1000
1778627321.19977903,61405428,1,0.0008537780377082527,0.0007086126133799553,0.000978567753918469,-0.0012074619298800826,0.0007719941786490381,-9.816679000854492,0,0,28.597524642944336,1,1,760,800
1778627321.23976302,61445412,0,0.0008515696390531957,0.00086296780500561,0.0008350632851943374,-0.001787432818673551,-0.0006688889698125422,-9.817998886108398,0,0,28.59976577758789,1,1,1000,1000
1778627321.23976302,61445412,1,0.0007663777796551585,0.0007959939539432526,0.0008796732872724533,-0.0013776266714558005,0.0016369391232728958,-9.81653881072998,0,0,28.599712371826172,1,1,760,800
1778627321.27974701,61485396,0,0.0008451847243122756,0.0008598734275437891,0.0008501224801875651,-0.0016992121236398816,-2.5176797862513922e-05,-9.818184852600098,0,0,28.601953506469727,1,1,1000,1000
1778627321.27974701,61485396,1,0.000892651965841651,0.0010706777684390545,0.0008363618981093168,-0.0005623577162623405,-0.0019679726101458073,-9.81926155090332,0,0,28.601898193359375,1,1,760,800
1778627321.31973100,61525380,0,0.0008788582636043429,0.0009129798854701221,0.0008359894854947925,-0.0015744686825200915,-0.00022480287589132786,-9.816917419433594,0,0,28.60413932800293,1,1,1000,1000
1778627321.31973100,61525380,1,0.0007301066070795059,0.0009131808183155954,0.0007879273034632206,-0.0018840567208826542,-0.001581984804943204,-9.817293167114258,0,0,28.604084014892578,1,1,760,800
1778627321.35971498,61565364,0,0.0008483084384351969,0.0008453119662590325,0.0008799203205853701,-0.0007680613780394197,-0.0012367073213681579,-9.816980361938477,0,0,28.6063232421875,1,1,1000,1000
1778627321.35971498,61565364,1,0.0009604780934751034,0.000809611810836941,0.0009611378773115575,-0.0004981338861398399,-0.000340616621542722,-9.816431045532227,0,0,28.60626983642578,1,1,760,800
1778627321.39969921,61605348,0,0.0008699054596945643,0.0009054954280145466,0.000870046962518245,-0.0010458790929988027,-0.0011598424753174186,-9.81690502166748,0,0,28.608510971069336,1,1,1000,1000
1778627321.39969921,61605348,1,0.0010019231121987104,0.0008232435211539268,0.0008841049857437611,-0.003237151773646474,0.0009118898888118565,-9.819520950317383,0,0,28.608455657958984,1,1,760,800
1778627321.43968320,61645332,0,0.0008575738174840808,0.0008547064498998225,0.0008651396492496133,-0.0008682155166752636,-0.0006199188064783812,-9.817805290222168,0,0,28.610694885253906,1,1,1000,1000
1778627321.43968320,61645332,1,0.0008269420941360295,0.0008694494608789682,0.0007844466017559171,-0.0026177605614066124,-0.0012661651708185673,-9.817944526672363,0,0,28.610641479492188,1,1,760,800
1778627321.47966719,61685316,0,0.0008765924139879644,0.0008416082710027695,0.0008361389045603573,-0.0006055083940736949,-0.0007191411568783224,-9.818587303161621,0,0,28.61288070678711,1,1,1000,1000
1778627321.47966719,61685316,1,0.0009553036070428789,0.000936510507017374,0.0007739790016785264,-0.0009623514488339424,-0.002113532507792115,-9.81794548034668,0,0,28.61282730102539,1,1,760,800
1778627321.51965117,61725300,0,0.0008559890557080507,0.0008162809535861015,0.0009145288495346904,-0.0011690387036651373,-0.001035527209751308,-9.817733764648438,0,0,28.615066528320312,1,1,1000,1000
1778627321.51965117,61725300,1,0.0008414896437898278,0.0010019609471783042,0.0010014661820605397,-0.0028033596463501453,-0.00041092344326898456,-9.81879711151123,0,0,28.61501121520996,1,1,760,800
1778627321.55963516,61765284,0,0.0009102743351832032,0.0008656379068270326,0.0008433258626610041,-0.0014806194230914116,-0.0006286012358032167,-9.816539764404297,0,0,28.617250442504883,1,1,1000,1000
1778627321.55963516,61765284,1,0.0010140257654711604,0.0007109689177013934,0.0010181780671700835,-0.0019855103455483913,0.0020165063906461,-9.815658569335938,0,0,28.61719512939453,1,1,760,800
1778627321.59961915,61805268,0,0.0008826309349387884,0.0009125090437009931,0.0008713433053344488,-0.0016407482326030731,-0.0012093097902834415,-9.817784309387207,0,0,28.619434356689453,1,1,1000,1000
1778627321.59961915,61805268,1,0.0007591348839923739,0.0009640565258450806,0.0009674757602624595,0.00032863521482795477,-0.001400740584358573,-9.817198753356934,0,0,28.619380950927734,1,1,760,800
1778627321.63960314,61845252,0,0.0008651737589389086,0.0009039895376190543,0.0008668996742926538,-0.0014541017590090632,0.0001182710548164323,-9.816822052001953,0,0,28.621618270874023,1,1,1000,1000
1778627321.63960314,61845252,1,0.0008545825839973986,0.0008152659283950925,0.000868146016728133,-0.001473219832405448,-0.0004224834847263992,-9.815730094909668,0,0,28.621562957763672,1,1,760,800
1778627321.67958713,61885236,0,0.0009485904010944068,0.0008718669414520264,0.0007962853997014463,-0.0023842486552894115,-0.0005950612830929458,-9.817968368530273,0,0,28.623802185058594,1,1,1000,1000
1778627321.67958713,61885236,1,0.0007236499222926795,0.0008998542325571179,0.0009478915017098188,-0.001591338193975389,0.0006085385102778673,-9.81590461730957,0,0,28.623748779296875,1,1,760,800
1778627321.71957111,61925220,0,0.0008585745235905051,0.0008287456585094333,0.0009175145532935858,-0.000542889058124274,-0.001902113202959299,-9.817789077758789,0,0,28.625930786132812,1,1,1000,1000
1778627321.71957111,61925220,1,0.00067391328047961,0.0008329366100952029,0.000907848821952939,-0.0019727114122360945,-0.0004926043329760432,-9.81502628326416,0,0,28.625930786132812,1,1,760,800
1778627321.75955510,61965204,0,0.000801150978077203,0.0008395814220421016,0.0008371345466002822,-0.0009587265667505562,-0.0004740398726426065,-9.818117141723633,0,0,28.628114700317383,1,1,1000,1000
1778627321.75955510,61965204,1,0.0008245209464803338,0.0008149411878548563,0.0010200226679444313,0.000968987587839365,0.0006647828267887235,-9.817488670349121,0,0,28.628114700317383,1,1,760,800
1778627321.79953909,62005188,0,0.0008088569156825542,0.0008439914090558887,0.0008854717016220093,6.478527211584151e-05,-0.00048171612434089184,-9.818131446838379,0,0,28.63029670715332,1,1,1000,1000
1778627321.79953909,62005188,1,0.0007904607336968184,0.0009400791605003178,0.0008165737963281572,0.0018177563324570656,-0.0029268208891153336,-9.817344665527344,0,0,28.63029670715332,1,1,760,800
1778627321.83952308,62045172,0,0.0008915367652662098,0.0008627246133983135,0.0009047238272614777,-0.0006006007897667587,-0.000785424723289907,-9.816913604736328,0,0,28.632478713989258,1,1,1000,1000
1778627321.83952308,62045172,1,0.000829154159873724,0.0008359829080291092,0.0010063902009278536,0.0013927507679909468,-0.0010058267507702112,-9.81540298461914,0,0,28.632478713989258,1,1,760,800
1778627321.87950706,62085156,0,0.0008440734818577766,0.0009006831096485257,0.0008700077887624502,-0.0008702147752046585,-0.0015693535096943378,-9.817445755004883,0,0,28.634660720825195,1,1,1000,1000
1778627321.87950706,62085156,1,0.0009486901108175516,0.0008386756526306272,0.0008055360522121191,0.00042869761819019914,-0.001867450657300651,-9.82048511505127,0,0,28.634660720825195,1,1,760,800
1778627321.91949105,62125140,0,0.0008463497506454587,0.0008976871031336486,0.0008487054728902876,-0.0004219840047881007,-0.0007529796566814184,-9.816824913024902,0,0,28.636842727661133,1,1,1000,1000
1778627321.91949105,62125140,1,0.0008081709966063499,0.0007657596142962575,0.0008907768060453236,-0.001428169198334217,-0.0003035582776647061,-9.815031051635742,0,0,28.636842727661133,1,1,760,800
1778627321.95947504,62165124,0,0.0008673449046909809,0.0009132818086072803,0.0008536654058843851,-0.001349535770714283,-0.001032171305269003,-9.817320823669434,0,0,28.63902473449707,1,1,1000,1000
1778627321.95947504,62165124,1,0.0010038542095571756,0.0009187527466565371,0.0008264788193628192,-0.0015110913664102554,-0.0014614866813644767,-9.818830490112305,0,0,28.63902473449707,1,1,760,800
1778627321.99945903,62205108,0,0.0008665509521961212,0.0009030592627823353,0.000845173024572432,-0.0002480199618730694,-0.0005844627739861608,-9.817996978759766,0,0,28.641206741333008,1,1,1000,1000
1778627321.99945903,62205108,1,0.0009949415689334273,0.000872550648637116,0.000997242983430624,-0.0011769316624850035,0.0016193048795685172,-9.817875862121582,0,0,28.641206741333008,1,1,760,800
1778627322.03944302,62245092,0,0.0008460457320325077,0.0008568096091039479,0.0008873225888237357,-0.0004134016635362059,-0.0009010753128677607,-9.816949844360352,0,0,28.643386840820312,1,1,1000,1000
1778627322.03944302,62245092,1,0.0010308499913662672,0.0008642822504043579,0.0008948422619141638,0.0003160554333589971,-0.0010304417228326201,-9.81768798828125,0,0,28.643386840820312,1,1,760,800
1778627322.07942700,62285076,0,0.0008759593474678695,0.0008715619915165007,0.0008570356294512749,-0.001505767460912466,-0.0010195220820605755,-9.81686782836914,0,0,28.64556884765625,1,1,1000,1000
1778627322.07942700,62285076,1,0.0009321804973296821,0.0007530997390858829,0.0008483923738822341,-0.0003489952068775892,0.0005191068630665541,-9.816811561584473,0,0,28.64556884765625,1,1,760,800
1778627322.11941099,62325060,0,0.000915834098123014,0.0008280742331407964,0.0008768588886596262,-0.0005008617881685495,-0.0012806407175958157,-9.879638671875,0,0,28.647802352905273,1,1,1000,1000
1778627322.11941099,62325060,1,0.0010688647162169218,0.0008586165495216846,0.0008111586212180555,-0.00039673689752817154,-0.0012474096147343516,-9.880613327026367,0,0,28.647802352905273,1,1,760,800
1778627322.15939522,62365044,0,0.0008510250481776893,0.0008805095567367971,0.0008420872618444264,-0.0008688581292517483,-0.002123718149960041,-10.406387329101562,0,0,28.649982452392578,1,1,1000,1000
1778627322.15939522,62365044,1,0.0008137569529935718,0.0007909892592579126,0.0010133425239473581,-0.00029545126017183065,-0.000614832213614136,-10.410684585571289,0,0,28.649982452392578,1,1,760,800
1778627322.19937921,62405028,0,0.0008797884802334011,0.000867046823259443,0.0008925474830903113,-0.0011502428678795695,-0.0014725099317729473,-10.435174942016602,0,0,28.652162551879883,1,1,1000,1000
1778627322.19937921,62405028,1,0.000961706624366343,0.0008657349389977753,0.0008694283314980567,0.0005151484510861337,0.0004676064127124846,-10.436480522155762,0,0,28.652162551879883,1,1,760,800
1778627322.23936319,62445012,0,0.0008966429159045219,0.0008663245243951678,0.0008722010534256697,-0.0011251558316871524,-0.0013551475713029504,-10.358043670654297,0,0,28.654342651367188,1,1,1000,1000
1778627322.23936319,62445012,1,0.0006767110317014158,0.0008853321196511388,0.0008911036420613527,-0.0013404467608779669,-0.0012440048158168793,-10.35802936553955,0,0,28.654342651367188,1,1,760,800
1778627322.27934718,62484996,0,0.0008905503200367093,0.000894441909622401,0.0008805005345493555,-0.0015187985263764858,-0.00023836862237658352,-10.394536018371582,0,0,28.65646743774414,1,1,1000,1000
1778627322.27934718,62484996,1,0.0008507117163389921,0.0009487616480328143,0.00095824443269521,-0.0015717868227511644,-0.0021496289409697056,-10.392789840698242,0,0,28.65646743774414,1,1,760,800
1778627322.31933117,62524980,0,0.0008845129632391036,0.0008518258109688759,0.0008675482240505517,-0.0006581885390914977,-0.0008822086383588612,-10.396860122680664,0,0,28.658645629882812,1,1,1000,1000
1778627322.31933117,62524980,1,0.0009676695335656404,0.0009279655641876161,0.0010899464832618833,-0.0005772639997303486,-0.00289330817759037,-10.396418571472168,0,0,28.658645629882812,1,1,760,800
1778627322.35931516,62564964,0,0.000920853519346565,0.0008832610910758376,0.0008745953091420233,-0.0009967780206352472,-0.001171773299574852,-10.367713928222656,0,0,28.660825729370117,1,1,1000,1000
1778627322.35931516,62564964,1,0.0008669965318404138,0.0009520304738543928,0.0008965992601588368,-0.0003776682715397328,-0.0009301757672801614,-10.367332458496094,0,0,28.660825729370117,1,1,760,800
1778627322.39929914,62604948,0,0.0008482392877340317,0.0008544732118025422,0.000877122743986547,-0.0014062828850001097,-0.001353889936581254,-10.346723556518555,0,0,28.66300392150879,1,1,1000,1000
1778627322.39929914,62604948,1,0.0006800166447646916,0.0007483980152755976,0.0009345655562356114,-0.003987864125519991,0.0009086438221856952,-10.347370147705078,0,0,28.66300392150879,1,1,760,800
1778627322.43928313,62644932,0,0.0009281659731641412,0.0008572385995648801,0.000892621697857976,-0.0010407846421003342,-0.0013865389628335834,-10.339588165283203,0,0,28.66518211364746,1,1,1000,1000
1778627322.43928313,62644932,1,0.0009999026078730822,0.0009028965723700821,0.0009351292392238975,-0.00022811665257904679,-0.0003047501959372312,-10.337669372558594,0,0,28.66518211364746,1,1,760,800
1778627322.47926712,62684916,0,0.0008366703987121582,0.0008614674443379045,0.0008860089583322406,-0.0019079670310020447,-0.0007375930435955524,-10.340929985046387,0,0,28.6673583984375,1,1,1000,1000
1778627322.47926712,62684916,1,0.0007825014181435108,0.0006750136381015182,0.0008091526688076556,0.00018606851517688483,-0.0038534291088581085,-10.342334747314453,0,0,28.6673583984375,1,1,760,800
1778627322.51925111,62724900,0,0.0008741633500903845,0.0008820482762530446,0.0009319470264017582,-0.0010753286769613624,-0.0018975025741383433,-10.351849555969238,0,0,28.669536590576172,1,1,1000,1000
1778627322.51925111,62724900,1,0.0009443477028980851,0.0007486953982152045,0.0009599403128959239,-0.0017587064066901803,-0.00032511353492736816,-10.352493286132812,0,0,28.669536590576172,1,1,760,800
1778627322.55923510,62764884,0,0.0008917894447222352,0.0008388173882849514,0.0008722624043002725,-0.0011858458165079355,-0.0006528298836201429,-10.362290382385254,0,0,28.671714782714844,1,1,1000,1000
1778627322.55923510,62764884,1,0.0008209080551750958,0.00107378582470119,0.0007892758003436029,-0.0035041742958128452,-0.0013244570000097156,-10.364646911621094,0,0,28.671714782714844,1,1,760,800
1778627322.59921908,62804868,0,0.0008673762204125524,0.0008372269803658128,0.0008792706648819149,-0.0005742711364291608,-0.00030351115856319666,-10.378670692443848,0,0,28.673891067504883,1,1,1000,1000
1778627322.59921908,62804868,1,0.0008927731541916728,0.000845257134642452,0.00098187115509063,-0.002637297846376896,-0.0003931423416361213,-10.380760192871094,0,0,28.673891067504883,1,1,760,800
1778627322.63920307,62844852,0,0.0008490258478559554,0.0008646861533634365,0.0008362054359167814,-0.00135401904117316,-0.0019543590024113655,-10.393988609313965,0,0,28.676067352294922,1,1,1000,1000
1778627322.63920307,62844852,1,0.0008146210457198322,0.0008206081693060696,0.001014586305245757,-0.0029313303530216217,0.00043809806811623275,-10.395283699035645,0,0,28.676067352294922,1,1,760,800
1778627322.67918706,62884836,0,0.0008824197575449944,0.0008447692380286753,0.0008665469358675182,-0.0014499545795843005,-0.002177307615056634,-10.411825180053711,0,0,28.67824363708496,1,1,1000,1000
1778627322.67918706,62884836,1,0.0009771271143108606,0.0009451456135138869,0.00108779885340482,0.001458831480704248,0.0008898927480913699,-10.413261413574219,0,0,28.67824363708496,1,1,760,800
1778627322.72000408,62925653,0,0.000842822773847729,0.0008424159022979438,0.0008538023103028536,-0.0010391668183729053,-0.0018159375758841634,-10.426219940185547,0,0,28.68047523498535,1,1,1000,1000
1778627322.72000408,62925653,1,0.0007555539486929774,0.0006924608023837209,0.0006886529736220837,-0.0018542440375313163,-0.0009608301916159689,-10.428241729736328,0,0,28.68047523498535,1,1,760,800
1778627322.75998807,62965637,0,0.0009079192532226443,0.0008956206729635596,0.0008413160685449839,-0.0012682594824582338,-0.0007664869190193713,-10.444554328918457,0,0,28.682649612426758,1,1,1000,1000
1778627322.75998807,62965637,1,0.0008110339986160398,0.0009689949220046401,0.0008156569674611092,-0.0020759289618581533,-0.0012625870294868946,-10.438074111938477,0,0,28.682649612426758,1,1,760,800
1778627322.79997206,63005621,0,-0.028655653819441795,-0.0271100252866745,0.0011631781235337257,-0.0008070827461779118,-0.0008388699498027563,-12.850823402404785,0,0,28.684825897216797,1,1,1000,1000
1778627322.79997206,63005621,1,-0.028606249019503593,-0.027195392176508904,0.0010257016401737928,-0.004155280068516731,-0.0034066992811858654,-12.874122619628906,0,0,28.684825897216797,1,1,760,800
1778627322.83995605,63045605,0,-0.03092748112976551,-0.03138819336891174,0.0015287422575056553,-0.005039526615291834,0.002081349492073059,-15.09296989440918,0,0,28.687002182006836,1,1,1000,1000
1778627322.83995605,63045605,1,-0.030615761876106262,-0.03118950128555298,0.001617558766156435,-0.0047843195497989655,0.004627022426575422,-15.121550559997559,0,0,28.687002182006836,1,1,760,800
1778627322.87994003,63085589,0,-0.029899608343839645,-0.02957492135465145,0.001898827264085412,-0.011272095143795013,0.010223154909908772,-14.824108123779297,0,0,28.689176559448242,1,1,1000,1000
1778627322.87994003,63085589,1,-0.030000189319252968,-0.029598450288176537,0.0019142805831506848,-0.014676861464977264,0.01031105313450098,-14.847306251525879,0,0,28.689176559448242,1,1,760,800
1778627322.91992402,63125573,0,-0.02738618105649948,-0.026081908494234085,0.0022367173805832863,-0.020351048558950424,0.019308239221572876,-13.786237716674805,0,0,28.69135093688965,1,1,1000,1000
1778627322.91992402,63125573,1,-0.027304325252771378,-0.02615041472017765,0.0022128974087536335,-0.018398087471723557,0.018376709893345833,-13.801332473754883,0,0,28.69135093688965,1,1,760,800
1778627322.95990801,63165557,0,-0.02259945683181286,-0.022048985585570335,0.0022635525092482567,-0.02486712858080864,0.02188226766884327,-12.566488265991211,0,0,28.693525314331055,1,1,1000,1000
1778627322.95990801,63165557,1,-0.022631673142313957,-0.02217400074005127,0.0023436634801328182,-0.021591490134596825,0.0235288143157959,-12.572528839111328,0,0,28.693525314331055,1,1,760,800
1778627322.99989200,63205541,0,-0.017063133418560028,-0.016155701130628586,0.0022907734382897615,-0.024602483958005905,0.022033020853996277,-11.397736549377441,0,0,28.69569969177246,1,1,1000,1000
1778627322.99989200,63205541,1,-0.01710980013012886,-0.016114043071866035,0.002344193635508418,-0.0246165432035923,0.021316299214959145,-11.399086952209473,0,0,28.69569969177246,1,1,760,800
1778627323.03987598,63245525,0,-0.011091003194451332,-0.01089983619749546,0.002411286812275648,-0.019693605601787567,0.017612755298614502,-10.438959121704102,0,0,28.697874069213867,1,1,1000,1000
1778627323.03987598,63245525,1,-0.011234828270971775,-0.011127226054668427,0.0025100677739828825,-0.019791077822446823,0.016510669142007828,-10.434826850891113,0,0,28.697874069213867,1,1,760,800
1778627323.07986021,63285509,0,-0.005769880022853613,-0.007200754713267088,0.0024061037693172693,-0.01453546155244112,0.012505904771387577,-9.753181457519531,0,0,28.70004653930664,1,1,1000,1000
1778627323.07986021,63285509,1,-0.0056119514629244804,-0.007255285046994686,0.0023351248819381,-0.014123920351266861,0.014208171516656876,-9.746976852416992,0,0,28.70004653930664,1,1,760,800
1778627323.11984420,63325493,0,-0.0011455639032647014,-0.0009972482221201062,0.002364405430853367,-0.008225658908486366,0.0072079733945429325,-9.360264778137207,0,0,28.702219009399414,1,1,1000,1000
1778627323.11984420,63325493,1,-0.0012131627881899476,-0.0009921807795763016,0.0022587471175938845,-0.010115010663866997,0.007108025718480349,-9.354758262634277,0,0,28.702219009399414,1,1,760,800
1778627323.15982819,63365477,0,0.003338280599564314,0.002833715872839093,0.002277867402881384,-0.00441745575517416,0.0012249486753717065,-9.213155746459961,0,0,28.70439338684082,1,1,1000,1000
1778627323.15982819,63365477,1,0.003213505493476987,0.0026938572991639376,0.0023177023977041245,-0.005047645885497332,-0.0008712175767868757,-9.21468734741211,0,0,28.70433807373047,1,1,760,800
1778627323.19981217,63405461,0,0.005045915022492409,0.005820141639560461,0.0022153521422296762,-0.0001402420166414231,-0.0006486974307335913,-9.259376525878906,0,0,28.706565856933594,1,1,1000,1000
1778627323.19981217,63405461,1,0.005033311899751425,0.005869452841579914,0.002416180446743965,-0.0014499735552817583,6.6322645579930395e-06,-9.259889602661133,0,0,28.706510543823242,1,1,760,800
1778627323.23979616,63445445,0,0.010230893269181252,0.010047764517366886,0.0021445732563734055,0.0005121399881318212,-0.002104647923260927,-9.439419746398926,0,0,28.708736419677734,1,1,1000,1000
1778627323.23979616,63445445,1,0.010216841474175453,0.010160321369767189,0.0022290425840765238,-0.0008720210171304643,-0.0018723484827205539,-9.443597793579102,0,0,28.708683013916016,1,1,760,800
1778627323.27978015,63485429,0,0.012836867943406105,0.01241767406463623,0.0020208796486258507,-0.00043783767614513636,-0.001939338631927967,-9.689661026000977,0,0,28.710908889770508,1,1,1000,1000
1778627323.27978015,63485429,1,0.012904705479741096,0.012348686344921589,0.0020524298306554556,0.00015643559163436294,-0.0016212472692131996,-9.687071800231934,0,0,28.71085548400879,1,1,760,800
1778627323.31976414,63525413,0,0.015430083498358727,0.014874454587697983,0.0020047761499881744,-0.0013572733150795102,-0.0005812383606098592,-9.963360786437988,0,0,28.71308135986328,1,1,1000,1000
1778627323.31976414,63525413,1,0.015325714834034443,0.014742056839168072,0.002162511693313718,-0.003078562207520008,0.0006890108343213797,-9.958723068237305,0,0,28.713027954101562,1,1,760,800
1778627323.35974813,63565397,0,0.0184196624904871,0.016571495682001114,0.0019289754563942552,-0.0029390654526650906,0.001509148278273642,-10.218914031982422,0,0,28.715251922607422,1,1,1000,1000
1778627323.35974813,63565397,1,0.018420420587062836,0.01665007881820202,0.0018082705792039633,-0.004581470508128405,0.003151694079861045,-10.217399597167969,0,0,28.715198516845703,1,1,760,800
1778627323.39973211,63605381,0,0.01790681853890419,0.016422437503933907,0.0018664964009076357,-0.004132922738790512,0.0019794884137809277,-10.44019889831543,0,0,28.717424392700195,1,1,1000,1000
1778627323.39973211,63605381,1,0.017820823937654495,0.016405150294303894,0.0018719241488724947,-0.001625475357286632,0.004457926843315363,-10.43603515625,0,0,28.717369079589844,1,1,760,800
1778627323.43971610,63645365,0,0.019856467843055725,0.017280738800764084,0.0018328152364119887,-0.005094179883599281,0.004054117947816849,-10.619162559509277,0,0,28.719594955444336,1,1,1000,1000
1778627323.43971610,63645365,1,0.019811347126960754,0.01745038665831089,0.0018654579762369394,-0.007794531062245369,0.003815824631601572,-10.61677360534668,0,0,28.719541549682617,1,1,760,800
1778627323.47970009,63685349,0,0.019885024055838585,0.01793452724814415,0.0017781233182176948,-0.008246739394962788,0.006023387890309095,-10.723442077636719,0,0,28.721765518188477,1,1,1000,1000
1778627323.47970009,63685349,1,0.019960960373282433,0.018016396090388298,0.001730672549456358,-0.007510812021791935,0.005745470058172941,-10.722370147705078,0,0,28.721710205078125,1,1,760,800
1778627323.51968408,63725333,0,0.01714215613901615,0.019406942650675774,0.0017743752105161548,-0.008867884986102581,0.006891305558383465,-10.797805786132812,0,0,28.723936080932617,1,1,1000,1000
1778627323.51968408,63725333,1,0.017188847064971924,0.019548632204532623,0.0017217554850503802,-0.008449944667518139,0.005833216942846775,-10.793946266174316,0,0,28.723880767822266,1,1,760,800
1778627323.55966806,63765317,0,0.017228126525878906,0.014140438288450241,0.0017502852715551853,-0.00819936953485012,0.006925981026142836,-10.83298110961914,0,0,28.726104736328125,1,1,1000,1000
1778627323.55966806,63765317,1,0.017234882339835167,0.014086185023188591,0.0017350725829601288,-0.00848701037466526,0.006855460349470377,-10.832374572753906,0,0,28.726051330566406,1,1,760,800
1778627323.59965205,63805301,0,0.015228863805532455,0.013837617821991444,0.0017236096318811178,-0.009497893042862415,0.008038357831537724,-10.857551574707031,0,0,28.728275299072266,1,1,1000,1000
1778627323.59965205,63805301,1,0.015296097844839096,0.013641266152262688,0.0017172908410429955,-0.010194355621933937,0.0093455221503973,-10.856916427612305,0,0,28.728219985961914,1,1,760,800
1778627323.63963604,63845285,0,0.013648329302668571,0.011327453888952732,0.0016503867227584124,-0.009691031649708748,0.006264181341975927,-10.836202621459961,0,0,28.730445861816406,1,1,1000,1000
1778627323.63963604,63845285,1,0.01355668157339096,0.011244991794228554,0.0016277076210826635,-0.007911484688520432,0.007210462354123592,-10.836304664611816,0,0,28.730390548706055,1,1,760,800
1778627323.67962003,63885269,0,0.01214894000440836,0.01270652748644352,0.001514009665697813,-0.009601536206901073,0.007105839438736439,-10.828959465026855,0,0,28.73261260986328,1,1,1000,1000
1778627323.67962003,63885269,1,0.011987147852778435,0.012715413235127926,0.0017743102507665753,-0.010614337399601936,0.008695309050381184,-10.833231925964355,0,0,28.732559204101562,1,1,760,800
1778627323.71960402,63925253,0,0.009461525827646255,0.00924389436841011,0.0015773746417835355,-0.009600801393389702,0.007603317499160767,-10.824014663696289,0,0,28.734783172607422,1,1,1000,1000
1778627323.71960402,63925253,1,0.009497854858636856,0.009157486259937286,0.0014418859500437975,-0.010683451779186726,0.006204025819897652,-10.823867797851562,0,0,28.73472785949707,1,1,760,800
1778627323.75958800,63965237,0,0.010074972175061703,0.011572963558137417,0.0014050942845642567,-0.010257399640977383,0.00949146319180727,-10.806861877441406,0,0,28.73695182800293,1,1,1000,1000
1778627323.75958800,63965237,1,0.010006534866988659,0.011689435690641403,0.0012108314549550414,-0.011373693123459816,0.0080942427739501,-10.806869506835938,0,0,28.736896514892578,1,1,760,800
1778627323.79957199,64005221,0,0.007636732421815395,0.00930785946547985,0.001373914536088705,-0.009872868657112122,0.007336914539337158,-10.800540924072266,0,0,28.739065170288086,1,1,1000,1000
1778627323.79957199,64005221,1,0.0075636669062078,0.009084071964025497,0.0011961848940700293,-0.007206757552921772,0.008079828694462776,-10.802325248718262,0,0,28.739065170288086,1,1,760,800
1778627323.83955622,64045205,0,0.008760730735957623,0.01005590707063675,0.001420242479071021,-0.009478758089244366,0.007069214712828398,-10.798643112182617,0,0,28.741233825683594,1,1,1000,1000
1778627323.83955622,64045205,1,0.008736795745790005,0.010145150125026703,0.0013995206682011485,-0.010572555474936962,0.007082085125148296,-10.799676895141602,0,0,28.741233825683594,1,1,760,800
1778627323.87954021,64085189,0,0.005483708810061216,0.005829900037497282,0.0013220333494246006,-0.008613997139036655,0.0076485974714159966,-10.803138732910156,0,0,28.74340057373047,1,1,1000,1000
1778627323.87954021,64085189,1,0.005454719066619873,0.005771548952907324,0.0014564606826752424,-0.009429452009499073,0.006585369817912579,-10.80510425567627,0,0,28.74340057373047,1,1,760,800
1778627323.91952419,64125173,0,0.008984021842479706,0.009283800609409809,0.001363227260299027,-0.00923931784927845,0.006372400559484959,-10.80904483795166,0,0,28.745567321777344,1,1,1000,1000
1778627323.91952419,64125173,1,0.008916094899177551,0.009279727935791016,0.0012949313968420029,-0.007807547226548195,0.009850140661001205,-10.809386253356934,0,0,28.745567321777344,1,1,760,800
1778627323.95950818,64165157,0,0.004063121974468231,0.004410541150718927,0.0013665457954630256,-0.007369233760982752,0.007858678698539734,-10.81753921508789,0,0,28.74773406982422,1,1,1000,1000
1778627323.95950818,64165157,1,0.003848802763968706,0.004528645426034927,0.0012485907645896077,-0.011171462945640087,0.004428491927683353,-10.818302154541016,0,0,28.74773406982422,1,1,760,800
1778627323.99949217,64205141,0,0.006753414869308472,0.005980067420750856,0.0014433591859415174,-0.00876600295305252,0.007957901805639267,-10.82778549194336,0,0,28.749902725219727,1,1,1000,1000
1778627323.99949217,64205141,1,0.006666392087936401,0.006190288811922073,0.0014437176287174225,-0.009779561311006546,0.004869399126619101,-10.827644348144531,0,0,28.749902725219727,1,1,760,800
1778627324.03947616,64245125,0,0.0028822969179600477,0.003808919806033373,0.0014316416345536709,-0.009649880230426788,0.007039549294859171,-10.836568832397461,0,0,28.75206756591797,1,1,1000,1000
1778627324.03947616,64245125,1,0.002828185446560383,0.003967066761106253,0.0015523906331509352,-0.01018678117543459,0.0049767689779400826,-10.836973190307617,0,0,28.75206756591797,1,1,760,800
1778627324.07946014,64285109,0,0.002222129376605153,0.0023935306817293167,0.0014384998939931393,-0.009171029552817345,0.006854372564703226,-10.831567764282227,0,0,28.754234313964844,1,1,1000,1000
1778627324.07946014,64285109,1,0.002269979100674391,0.0024698651395738125,0.0014283950440585613,-0.007012260612100363,0.007775896228849888,-10.831212997436523,0,0,28.754234313964844,1,1,760,800
1778627324.11944413,64325093,0,0.005886740516871214,0.004279302433133125,0.0015319056110456586,-0.007849141024053097,0.006679535377770662,-10.85313606262207,0,0,28.75640106201172,1,1,1000,1000
1778627324.11944413,64325093,1,0.0058524273335933685,0.004132201429456472,0.0016429353272542357,-0.008627205155789852,0.0028517134487628937,-10.85008430480957,0,0,28.75640106201172,1,1,760,800
1778627324.15942812,64365077,0,0.004267779644578695,0.003614322282373905,0.001495672739110887,-0.008009061217308044,0.005635641515254974,-10.843405723571777,0,0,28.75856590270996,1,1,1000,1000
1778627324.15942812,64365077,1,0.0040326728485524654,0.0033949760254472494,0.0013838891172781587,-0.007476793602108955,0.005509770475327969,-10.84471321105957,0,0,28.75856590270996,1,1,760,800
1778627324.19941211,64405061,0,0.0010344991460442543,-0.0003294800117146224,0.0015887839253991842,-0.008158119395375252,0.005164574831724167,-10.85799789428711,0,0,28.760786056518555,1,1,1000,1000
1778627324.19941211,64405061,1,0.0010444120271131396,-0.0005050628096796572,0.0016558143543079495,-0.006464247591793537,0.0056984745897352695,-10.858141899108887,0,0,28.760786056518555,1,1,760,800
1778627324.23939610,64445045,0,0.0011196002596989274,-9.585524821886793e-05,0.0014399002538993955,-0.007546601817011833,0.005614281166344881,-10.840824127197266,0,0,28.762950897216797,1,1,1000,1000
1778627324.23939610,64445045,1,0.001084144227206707,0.00012536383292172104,0.0012928657233715057,-0.007219742983579636,0.0075091831386089325,-10.840044021606445,0,0,28.762950897216797,1,1,760,800
1778627324.27938008,64485029,0,0.0021409071050584316,0.0009985254146158695,0.0015151405241340399,-0.006509847939014435,0.004426486790180206,-10.859593391418457,0,0,28.76511573791504,1,1,1000,1000
1778627324.27938008,64485029,1,0.0019823452457785606,0.0009767592418938875,0.001533285016193986,-0.006207340396940708,0.006000164896249771,-10.860969543457031,0,0,28.76511573791504,1,1,760,800
1778627324.31936407,64525013,0,0.0019159227376803756,0.0009784877765923738,0.001501935999840498,-0.0066667706705629826,0.0030701381620019674,-10.841653823852539,0,0,28.76728057861328,1,1,1000,1000
1778627324.31936407,64525013,1,0.0018061581067740917,0.0011364046949893236,0.0015868913615122437,-0.005726705305278301,0.005352080799639225,-10.838151931762695,0,0,28.76728057861328,1,1,760,800
1778627324.35934806,64564997,0,0.0008504902943968773,-0.0009319559903815389,0.001458546961657703,-0.0061013358645141125,0.0044503482058644295,-10.857295989990234,0,0,28.769390106201172,1,1,1000,1000
1778627324.35934806,64564997,1,0.0007599869859404862,-0.0009012659429572523,0.0014872853644192219,-0.0038399500772356987,0.005004534963518381,-10.857748985290527,0,0,28.769390106201172,1,1,760,800
1778627324.39933205,64604981,0,0.0008236396824941039,-0.0008399566286243498,0.0014113105135038495,-0.004950713831931353,0.004940754268318415,-10.838203430175781,0,0,28.771554946899414,1,1,1000,1000
1778627324.39933205,64604981,1,0.0007539812359027565,-0.0008397833444178104,0.0014755878364667296,-0.006320850923657417,0.0036458580289036036,-10.83812141418457,0,0,28.771554946899414,1,1,760,800
1778627324.43931603,64644965,0,-0.0010941288201138377,-0.0005856147618032992,0.0014674067497253418,-0.0048103928565979,0.0032525015994906425,-10.851768493652344,0,0,28.773717880249023,1,1,1000,1000
1778627324.43931603,64644965,1,-0.0010888954857364297,-0.0005466962466016412,0.0015111322281882167,-0.006672935094684362,0.0023162541911005974,-10.85080337524414,0,0,28.773717880249023,1,1,760,800
1778627324.47930002,64684949,0,-0.0008234564447775483,-0.00042494217632338405,0.001466091489419341,-0.0055443886667490005,0.003081025555729866,-10.831542015075684,0,0,28.775880813598633,1,1,1000,1000
1778627324.47930002,64684949,1,-0.0007594936760142446,-0.0004014367004856467,0.0013984726974740624,-0.0025685951113700867,0.0026643089950084686,-10.834729194641113,0,0,28.775880813598633,1,1,760,800
1778627324.51928401,64724933,0,-9.063604011316784e-06,-0.0002816439373418689,0.001390328397974372,-0.004440595395863056,0.001223870785906911,-10.78990364074707,0,0,28.778043746948242,1,1,1000,1000
1778627324.51928401,64724933,1,-0.00014143477892503142,-0.0004137602518312633,0.001492838142439723,-0.0048302109353244305,0.004128708504140377,-10.789953231811523,0,0,28.778043746948242,1,1,760,800
1778627324.55926800,64764917,0,0.00010199859389103949,-0.00016182834224309772,0.0014256283175200224,-0.004510543774813414,0.0028586634434759617,-10.688117027282715,0,0,28.780208587646484,1,1,1000,1000
1778627324.55926800,64764917,1,0.00016076417523436248,-0.0002244482166133821,0.0013399615418165922,-0.0051774741150438786,0.001463909400627017,-10.686519622802734,0,0,28.780208587646484,1,1,760,800
1778627324.59925199,64804901,0,-0.00047951540909707546,-0.0004564038827084005,0.0014592099469155073,-0.0034459049347788095,0.0011529144831001759,-10.577977180480957,0,0,28.78236961364746,1,1,1000,1000
1778627324.59925199,64804901,1,-0.00038207106990739703,-0.0003956635482609272,0.0015536040300503373,-0.003938965033739805,0.0014259717427194118,-10.578326225280762,0,0,28.78236961364746,1,1,760,800
1778627324.63923621,64844885,0,-0.001307869330048561,-9.993936691898853e-05,0.001487544272094965,-0.00363947544246912,0.0013888722751289606,-10.479337692260742,0,0,28.78453254699707,1,1,1000,1000
1778627324.63923621,64844885,1,-0.0013062396319583058,9.500163287157193e-06,0.0015689327847212553,-0.0033196606673300266,0.0023070278111845255,-10.480387687683105,0,0,28.78453254699707,1,1,760,800
1778627324.67922020,64884869,0,-0.0011883543338626623,0.0002328016416868195,0.0015232337173074484,-0.0028564168605953455,0.00044237449765205383,-10.388372421264648,0,0,28.786693572998047,1,1,1000,1000
1778627324.67922020,64884869,1,-0.0011271192925050855,0.00034157559275627136,0.0017274749698117375,-0.0026856313925236464,0.002570076147094369,-10.389424324035645,0,0,28.786693572998047,1,1,760,800
1778627324.71920419,64924853,0,-0.001115435385145247,-0.0003608501283451915,0.0014670414384454489,-0.002116276416927576,0.00022711805650033057,-10.30303955078125,0,0,28.788854598999023,1,1,1000,1000
1778627324.71920419,64924853,1,-0.0010402927873656154,-0.0002870394382625818,0.0014230097876861691,-0.0025296229869127274,0.0005950535996817052,-10.301223754882812,0,0,28.788854598999023,1,1,760,800
1778627324.75918818,64964837,0,-0.0018457486294209957,-0.0005320957861840725,0.0014557545073330402,-0.003142386442050338,-2.1170262698433362e-05,-10.226632118225098,0,0,28.791017532348633,1,1,1000,1000
1778627324.75918818,64964837,1,-0.0017766631208360195,-0.0005897123483009636,0.0013276638928800821,-0.002894660457968712,0.0007354676490649581,-10.226186752319336,0,0,28.791017532348633,1,1,760,800
1778627324.80000520,65005654,0,-0.0015710017178207636,-0.001309053273871541,0.001333331922069192,-0.003128084121271968,-0.0003734238853212446,-10.15593433380127,0,0,28.793231964111328,1,1,1000,1000
1778627324.80000520,65005654,1,-0.0014556802343577147,-0.0013571417657658458,0.0011616137344390154,-0.004632532596588135,-0.0014944170834496617,-10.156375885009766,0,0,28.793231964111328,1,1,760,800
1778627324.83998919,65045638,0,-0.00142645463347435,-0.0027644364163279533,0.0012699568178504705,-0.0030024806037545204,7.124752301024273e-06,-10.088899612426758,0,0,28.795392990112305,1,1,1000,1000
1778627324.83998919,65045638,1,-0.0016000320902094245,-0.0028062756173312664,0.0012359985848888755,-0.003932659979909658,-0.0009691494051367044,-10.088196754455566,0,0,28.795392990112305,1,1,760,800
1778627324.87997317,65085622,0,-0.0035566971637308598,-0.0007851768168620765,0.0012414304073899984,-0.002013616496697068,-0.0010559423826634884,-10.035922050476074,0,0,28.79755401611328,1,1,1000,1000
1778627324.87997317,65085622,1,-0.0034464560449123383,-0.0008215781417675316,0.001339171314612031,-0.0018963196780532598,0.0015988119412213564,-10.037611961364746,0,0,28.79755401611328,1,1,760,800
1778627324.91995716,65125606,0,-0.0041890437714755535,-0.0004495619796216488,0.0011776110623031855,-0.002061947714537382,-0.001790126203559339,-9.98275375366211,0,0,28.799713134765625,1,1,1000,1000
1778627324.91995716,65125606,1,-0.004245620686560869,-0.00045670673716813326,0.0011950843036174774,-0.0013644612627103925,-0.000431466061854735,-9.981538772583008,0,0,28.799713134765625,1,1,760,800
1778627324.95994115,65165590,0,0.00014691179967485368,-0.003969042096287012,0.0011437236098572612,-0.0011762159410864115,-0.0012551804538816214,-9.938289642333984,0,0,28.8018741607666,1,1,1000,1000
1778627324.95994115,65165590,1,-1.220610283780843e-05,-0.004067802801728249,0.0010479155462235212,-0.0018409561598673463,-0.0012386341113597155,-9.940568923950195,0,0,28.8018741607666,1,1,760,800
1778627324.99992514,65205574,0,-0.004673568531870842,0.0002453411289025098,0.0009965542703866959,-0.001916543347761035,-0.0012010963400825858,-9.901671409606934,0,0,28.804033279418945,1,1,1000,1000
1778627324.99992514,65205574,1,-0.00458309892565012,0.00016567284183111042,0.001048109494149685,-0.002402494428679347,-0.0013809120282530785,-9.899842262268066,0,0,28.804033279418945,1,1,760,800
1778627325.03990912,65245558,0,-7.843557250453159e-05,-0.0034317951649427414,0.0009108345839194953,-0.0008270642138086259,-0.0020826063118875027,-9.867050170898438,0,0,28.80619239807129,1,1,1000,1000
1778627325.03990912,65245558,1,-0.00010319748980691656,-0.0034925572108477354,0.0008433309849351645,-0.0021435546223074198,-0.0016617730725556612,-9.867624282836914,0,0,28.80619239807129,1,1,760,800
1778627325.07989311,65285542,0,-0.0021364674903452396,-0.004823786672204733,0.0007711187936365604,-0.0009662729571573436,-0.0019407060462981462,-9.833026885986328,0,0,28.808351516723633,1,1,1000,1000
1778627325.07989311,65285542,1,-0.0021741020027548075,-0.004789972677826881,0.0007711751968599856,-0.0003085391945205629,0.0017922255210578442,-9.833110809326172,0,0,28.808351516723633,1,1,760,800
1778627325.11987710,65325526,0,-0.004328811075538397,-0.0012209347914904356,0.0005622433382086456,-0.0018114817794412374,-0.0033434180077165365,-9.80283260345459,0,0,28.810508728027344,1,1,1000,1000
1778627325.11987710,65325526,1,-0.00443653017282486,-0.0013602315448224545,0.0006555011495947838,-0.004023988265544176,-0.005035330541431904,-9.802985191345215,0,0,28.810508728027344,1,1,760,800
1778627325.15986109,65365510,0,-0.0007289928616955876,-0.0021267610136419535,0.00041980919195339084,-0.0006245331023819745,-0.001116498839110136,-9.784948348999023,0,0,28.812667846679688,1,1,1000,1000
1778627325.15986109,65365510,1,-0.0008081997511908412,-0.002465072786435485,0.0005701248883269727,0.0014586227480322123,-0.0006207544356584549,-9.7859468460083,0,0,28.812667846679688,1,1,760,800
1778627325.19984508,65405494,0,-0.0015871984651312232,6.803000724175945e-05,0.00031747299362905324,-0.0013864050852134824,-0.0035509755834937096,-9.76428508758545,0,0,28.81482696533203,1,1,1000,1000
1778627325.19984508,65405494,1,-0.001608256483450532,9.118976595345885e-05,7.166804425651208e-05,-0.0012373996432870626,-0.0031782432924956083,-9.764212608337402,0,0,28.81482696533203,1,1,760,800
1778627325.23982906,65445478,0,-0.0032717720605432987,-0.0016033321153372526,9.247118214261718e-06,0.0001823573693400249,-0.0027432595379650593,-9.744056701660156,0,0,28.816984176635742,1,1,1000,1000
1778627325.23982906,65445478,1,-0.003123268950730562,-0.0016140365041792393,0.00010515788744669408,0.000553154619410634,-0.0019208663143217564,-9.744502067565918,0,0,28.816930770874023,1,1,760,800
1778627325.27981305,65485462,0,-0.0027483555022627115,-0.0012557480949908495,-0.00022715955856256187,-0.00010172765178140253,-0.0014693530974909663,-9.737687110900879,0,0,28.819143295288086,1,1,1000,1000
1778627325.27981305,65485462,1,-0.0026514381170272827,-0.0012208063853904605,-0.00022911277483217418,-0.0022423421032726765,-0.0032354104332625866,-9.736042976379395,0,0,28.819087982177734,1,1,760,800
1778627325.31979704,65525446,0,0.00021182256750762463,-0.0022455211728811264,-0.00022187471040524542,0.0007308680796995759,-0.002883543958887458,-9.730674743652344,0,0,28.821298599243164,1,1,1000,1000
1778627325.31979704,65525446,1,0.00021395708608906716,-0.002163795055821538,-0.00020362988288979977,-0.00014627327618654817,-0.0024481224827468395,-9.730527877807617,0,0,28.821245193481445,1,1,760,800
1778627325.35978103,65565430,0,0.00120129797141999,-0.0018891791114583611,-0.0005680866888724267,-0.0004606019938364625,-0.0027866598684340715,-9.722506523132324,0,0,28.823455810546875,1,1,1000,1000
1778627325.35978103,65565430,1,0.0009703114628791809,-0.002020347397774458,-0.0006376823876053095,-0.00026739336317405105,-0.0023004296235740185,-9.723746299743652,0,0,28.823402404785156,1,1,760,800
1778627325.39976501,65605414,0,0.0015139980241656303,-0.0029730508103966713,-0.0009538409067317843,0.0007968670106492937,-0.004255393519997597,-9.711710929870605,0,0,28.825613021850586,1,1,1000,1000
1778627325.39976501,65605414,1,0.0016649940516799688,-0.002931993454694748,-0.000892679556272924,0.002139302436262369,-0.0005287574604153633,-9.713415145874023,0,0,28.825559616088867,1,1,760,800
1778627325.43974900,65645398,0,0.0014424783876165748,-0.0026053576730191708,-0.0010531836887821555,0.00038673559902235866,-0.002690067747607827,-9.713645935058594,0,0,28.827770233154297,1,1,1000,1000
1778627325.43974900,65645398,1,0.001544166007079184,-0.002498571528121829,-0.0011746149975806475,-0.0005882916739210486,-0.0021048099733889103,-9.712882995605469,0,0,28.827716827392578,1,1,760,800
1778627325.47973299,65685382,0,0.0013763129245489836,-0.0007643577991984785,-0.00115132553037256,0.0005771227297373116,-0.0018162602791562676,-9.714994430541992,0,0,28.829925537109375,1,1,1000,1000
1778627325.47973299,65685382,1,0.0013568358263000846,-0.0006740129902027547,-0.0012099412269890308,0.0004027194809168577,-0.00067050417419523,-9.714910507202148,0,0,28.829872131347656,1,1,760,800
1778627325.51971722,65725366,0,0.0013776631094515324,-0.0009750596364028752,-0.00104023446328938,0.0004870192497037351,-0.0030121207237243652,-9.712557792663574,0,0,28.832080841064453,1,1,1000,1000
1778627325.51971722,65725366,1,0.0014314961154013872,-0.001183861750178039,-0.0010226719314232469,-0.0020636203698813915,-0.004043603781610727,-9.710701942443848,0,0,28.832027435302734,1,1,760,800
1778627325.55970120,65765350,0,0.0013367655919864774,-0.0007133370381779969,-0.0008881047833710909,0.0007512726588174701,-0.002071257447823882,-9.714723587036133,0,0,28.83423614501953,1,1,1000,1000
1778627325.55970120,65765350,1,0.0011622956953942776,-0.0007397370063699782,-0.0009394094231538475,0.0004621577390935272,-0.004487590864300728,-9.714072227478027,0,0,28.834182739257812,1,1,760,800
1778627325.59968519,65805334,0,0.001258630189113319,0.000961154350079596,-0.0007497571059502661,0.0001721880689729005,-0.0029799600597471,-9.718233108520508,0,0,28.83639144897461,1,1,1000,1000
1778627325.59968519,65805334,1,0.0010396841680631042,0.0009877672418951988,-0.0008555724052712321,4.056210309499875e-05,-0.002792979124933481,-9.716812133789062,0,0,28.83633804321289,1,1,760,800
1778627325.63966918,65845318,0,0.0012490767985582352,0.0025719807017594576,-0.0009284251136705279,0.000595212506595999,-0.00355703616514802,-9.727304458618164,0,0,28.838546752929688,1,1,1000,1000
1778627325.63966918,65845318,1,0.0013023868668824434,0.0027691356372088194,-0.000985992606729269,0.0006008128402754664,-0.0027533522807061672,-9.728179931640625,0,0,28.83849334716797,1,1,760,800
1778627325.67965317,65885302,0,0.0011895287316292524,0.003381899790838361,-0.0011669675586745143,0.0012268603313714266,-0.004357624799013138,-9.729177474975586,0,0,28.840702056884766,1,1,1000,1000
1778627325.67965317,65885302,1,0.0011808945564553142,0.003434455720707774,-0.001261047087609768,0.00034636352211236954,-0.001014127628877759,-9.729880332946777,0,0,28.840648651123047,1,1,760,800
1778627325.71963716,65925286,0,-0.0007532904273830354,0.0022135430481284857,-0.0014625904150307178,-0.0004852977581322193,-0.0030467109754681587,-9.735569953918457,0,0,28.842857360839844,1,1,1000,1000
1778627325.71963716,65925286,1,-0.0007663035066798329,0.002214471809566021,-0.0013988910941407084,-0.0016134041361510754,-0.003914584405720234,-9.736084938049316,0,0,28.842803955078125,1,1,760,800
1778627325.75962114,65965270,0,-0.00046016956912353635,0.0030214698053896427,-0.0018879439448937774,0.00024783361004665494,-0.003246104810386896,-9.74845027923584,0,0,28.84501075744629,1,1,1000,1000
1778627325.75962114,65965270,1,-0.0004981423262506723,0.002975303679704666,-0.0017516463994979858,0.00033407198498025537,-0.0025979874189943075,-9.745964050292969,0,0,28.84495735168457,1,1,760,800
1778627325.79960513,66005254,0,-0.0012574194697663188,0.0028414754197001457,-0.001971186837181449,-0.0005273278220556676,-0.0033406494185328484,-9.752058029174805,0,0,28.847164154052734,1,1,1000,1000
1778627325.79960513,66005254,1,-0.0015888871857896447,0.0028288420289754868,-0.001888040453195572,-0.0017978206742554903,-0.002271075500175357,-9.751855850219727,0,0,28.847110748291016,1,1,760,800
1778627325.83958912,66045238,0,-0.00210125045850873,0.0025896502193063498,-0.0019900426268577576,0.0006703074323013425,-0.002905691508203745,-9.75462532043457,0,0,28.84931755065918,1,1,1000,1000
1778627325.83958912,66045238,1,-0.002136348746716976,0.002612143289297819,-0.001869490835815668,-0.0016616220818832517,-0.004560916218906641,-9.755733489990234,0,0,28.84926414489746,1,1,760,800
1778627325.87957311,66085222,0,-0.0004856712475884706,0.002429709769785404,-0.001786916865967214,-0.00023428848362527788,-0.003666303586214781,-9.759506225585938,0,0,28.851417541503906,1,1,1000,1000
1778627325.87957311,66085222,1,-0.00048587514902465045,0.0023475349880754948,-0.0016735114622861147,-0.0005431626341305673,-0.000981069402769208,-9.760066986083984,0,0,28.851417541503906,1,1,760,800
1778627325.91955709,66125206,0,-0.00033798161894083023,0.0022164899855852127,-0.0014861387899145484,-0.00015461951261386275,-0.00285264546982944,-9.759230613708496,0,0,28.85357093811035,1,1,1000,1000
1778627325.91955709,66125206,1,-0.00035501125967130065,0.002289039082825184,-0.0016143752727657557,-0.00053105887491256,-0.00392637774348259,-9.759822845458984,0,0,28.85357093811035,1,1,760,800
1778627325.95954108,66165190,0,-0.00026035093469545245,0.0009326925501227379,-0.0015193541767075658,-9.692787716630846e-05,-0.0029706417117267847,-9.771398544311523,0,0,28.855722427368164,1,1,1000,1000
1778627325.95954108,66165190,1,-0.00025432140682823956,0.0012189334956929088,-0.0015324857085943222,-0.0013689514016732574,-0.002221759408712387,-9.771756172180176,0,0,28.855722427368164,1,1,760,800
1778627325.99952507,66205174,0,-0.0010053471196442842,0.00020869949366897345,-0.0015807279851287603,-0.00021450368512887508,-0.0032176505774259567,-9.790329933166504,0,0,28.85787582397461,1,1,1000,1000
1778627325.99952507,66205174,1,-0.0010135810589417815,0.00022668251767754555,-0.001611924497410655,-0.0022768580820411444,-0.003530894173309207,-9.791722297668457,0,0,28.85787582397461,1,1,760,800
1778627326.03950906,66245158,0,-0.0014726766385138035,0.00019966979743912816,-0.0015948571963235736,0.000724665354937315,-0.004014297854155302,-9.790210723876953,0,0,28.860027313232422,1,1,1000,1000
1778627326.03950906,66245158,1,-0.0015441963914781809,0.00012721747043542564,-0.0017576583195477724,-0.00045226633665151894,-0.0017811793368309736,-9.78960132598877,0,0,28.860027313232422,1,1,760,800
1778627326.07949305,66285142,0,-0.00038288714131340384,0.0003030687803402543,-0.001722313230857253,-0.0002543070586398244,-0.0024129210505634546,-9.793109893798828,0,0,28.862178802490234,1,1,1000,1000
1778627326.07949305,66285142,1,-0.0003427679475862533,0.00028412463143467903,-0.001432997640222311,-0.0019136846531182528,-0.0028914478607475758,-9.794292449951172,0,0,28.862178802490234,1,1,760,800
1778627326.11947703,66325126,0,0.0020189699716866016,0.00037157678161747754,-0.0016474135918542743,-0.00017949743778444827,-0.0037755807861685753,-9.797717094421387,0,0,28.864330291748047,1,1,1000,1000
1778627326.11947703,66325126,1,0.002151049440726638,0.00024864633451215923,-0.0015746844001114368,0.0028807148337364197,-0.004030289594084024,-9.79638385772705,0,0,28.864330291748047,1,1,760,800
1778627326.15946102,66365110,0,0.0017854737816378474,0.0004252026556059718,-0.0013905753148719668,0.0007020902703516185,-0.002465719124302268,-9.796735763549805,0,0,28.866483688354492,1,1,1000,1000
1778627326.15946102,66365110,1,0.0017783346120268106,0.0003987452364526689,-0.0014303987845778465,0.0006183066871017218,-0.0030267389956861734,-9.797530174255371,0,0,28.866483688354492,1,1,760,800
1778627326.19944501,66405094,0,0.001744479755870998,0.002279395703226328,-0.0012308727018535137,0.0006372225470840931,-0.002968468004837632,-9.799156188964844,0,0,28.868633270263672,1,1,1000,1000
1778627326.19944501,66405094,1,0.0016517675248906016,0.0021982963662594557,-0.0011761183850467205,-0.00034429458901286125,-0.0014772526919841766,-9.795854568481445,0,0,28.868633270263672,1,1,760,800
1778627326.23942900,66445078,0,0.001756928046233952,0.0029399311169981956,-0.0012660007923841476,0.0011834062170237303,-0.0031791855581104755,-9.81207275390625,0,0,28.870784759521484,1,1,1000,1000
1778627326.23942900,66445078,1,0.001527060754597187,0.0029045697301626205,-0.0013595880009233952,0.0006398342084139585,-0.0029740426689386368,-9.809176445007324,0,0,28.870784759521484,1,1,760,800
1778627326.27941298,66485062,0,0.0027377530932426453,0.004899315070360899,-0.001451005693525076,0.0001889901323011145,-0.0027315125335007906,-9.822669982910156,0,0,28.872987747192383,1,1,1000,1000
1778627326.27941298,66485062,1,0.002718971809372306,0.004843151196837425,-0.0014806168619543314,0.001200973056256771,-0.002526045311242342,-9.823976516723633,0,0,28.872987747192383,1,1,760,800
1778627326.31939721,66525046,0,0.0018260430078953505,0.004382452927529812,-0.0016313352389261127,0.0005487551679834723,-0.003600907977670431,-9.822074890136719,0,0,28.875139236450195,1,1,1000,1000
1778627326.31939721,66525046,1,0.0017352872528135777,0.004463236778974533,-0.0015597488963976502,0.0011789852287620306,-0.0033154916018247604,-9.823410034179688,0,0,28.875139236450195,1,1,760,800
1778627326.35938120,66565030,0,0.002066264394670725,0.004027205519378185,-0.0018546691862866282,0.0012846601894125342,-0.003133279737085104,-9.822173118591309,0,0,28.877288818359375,1,1,1000,1000
1778627326.35938120,66565030,1,0.002334710443392396,0.003999646753072739,-0.001726588699966669,-0.0005201208987273276,-0.0009968404192477465,-9.822808265686035,0,0,28.877288818359375,1,1,760,800
1778627326.39936519,66605014,0,0.0014786433894187212,0.0037056959699839354,-0.002032148651778698,0.0008254597196355462,-0.0029986295849084854,-9.825160026550293,0,0,28.879436492919922,1,1,1000,1000
1778627326.39936519,66605014,1,0.0013120672665536404,0.0037502525374293327,-0.0020061922259628773,0.0006987861706875265,-0.0033353848848491907,-9.823944091796875,0,0,28.879436492919922,1,1,760,800
1778627326.43934917,66644998,0,0.0009287821012549102,0.003447554772719741,-0.00204639439471066,-4.153522604610771e-05,-0.0034330266062170267,-9.825217247009277,0,0,28.881532669067383,1,1,1000,1000
1778627326.43934917,66644998,1,0.0010520912474021316,0.003426631912589073,-0.002080956008285284,-0.0001360744354315102,-0.0033155400305986404,-9.824782371520996,0,0,28.881532669067383,1,1,760,800
1778627326.47933316,66684982,0,0.002922395244240761,0.0031923423521220684,-0.001988782547414303,-0.0003928490332327783,-0.002832108875736594,-9.829355239868164,0,0,28.883682250976562,1,1,1000,1000
1778627326.47933316,66684982,1,0.0027986769564449787,0.0031602727249264717,-0.0019148667342960835,0.002371696289628744,-0.0028890776447951794,-9.826526641845703,0,0,28.883682250976562,1,1,760,800
1778627326.51931715,66724966,0,0.0020360557828098536,0.002979731885716319,-0.0017285383073613048,0.0004029828996863216,-0.002348332665860653,-9.8311185836792,0,0,28.885831832885742,1,1,1000,1000
1778627326.51931715,66724966,1,0.001895615365356207,0.0028935796581208706,-0.0017035191413015127,0.00041621847776696086,-0.0037124783266335726,-9.830253601074219,0,0,28.885831832885742,1,1,760,800
1778627326.55930114,66764950,0,0.0019528126576915383,0.0027108804788440466,-0.0016404289053753018,-0.00016853214765433222,-0.0026365183293819427,-9.82869815826416,0,0,28.88797950744629,1,1,1000,1000
1778627326.55930114,66764950,1,0.0019464276265352964,0.0028401524759829044,-0.0015263922978192568,-0.001626207260414958,-0.0015563617926090956,-9.829752922058105,0,0,28.88797950744629,1,1,760,800
