timestamp,TimeUS,I,GyrX,GyrY,GyrZ,AccX,AccY,AccZ,EG,EA,T,GH,AH,GHz,AHz
1778788392.69920707,65884469,0,0.0009140516049228609,0.0009033981477841735,0.0009237399790436029,4.852438723901287e-05,-0.0024303742684423923,-9.817787170410156,0,0,28.840648651123047,1,1,1000,1000
1778788392.69920707,65884469,1,0.0008154634851962328,0.0009601981728337705,0.0007753984536975622,-0.0009366731392219663,0.0009079400333575904,-9.818324089050293,0,0,28.840648651123047,1,1,760,800
1778788392.74002409,65925286,0,0.0009212211589328945,0.0008525763405486941,0.0009686308912932873,-0.0017397566698491573,-0.0010481998324394226,-9.817962646484375,0,0,28.842857360839844,1,1,1000,1000
1778788392.74002409,65925286,1,0.0009044568287208676,0.0010468622203916311,0.0010587552096694708,-0.0028701031114906073,-0.0019179234514012933,-9.818723678588867,0,0,28.842803955078125,1,1,760,800
1778788392.78000808,65965270,0,0.0008693089475855231,0.0009351693443022668,0.0008689555106684566,-0.0009350695181638002,-0.001159926876425743,-9.817306518554688,0,0,28.84501075744629,1,1,1000,1000
1778788392.78000808,65965270,1,0.0010624532587826252,0.0008150734938681126,0.0009217590559273958,-0.0008501830161549151,-0.0005121081485413015,-9.815150260925293,0,0,28.84495735168457,1,1,760,800
1778788392.81999207,66005254,0,0.0009324351558461785,0.0009828455513343215,0.0009180665947496891,-0.0016596168279647827,-0.0011505000293254852,-9.818524360656738,0,0,28.847164154052734,1,1,1000,1000
1778788392.81999207,66005254,1,0.0008291936246678233,0.0010278145782649517,0.0009060758166015148,-0.0029311494436115026,-8.078003156697378e-05,-9.818509101867676,0,0,28.847110748291016,1,1,760,800
1778788392.85997605,66045238,0,0.0009131389087997377,0.0009303718688897789,0.0009882593294605613,-0.00042515050154179335,-0.000623055559117347,-9.817291259765625,0,0,28.84931755065918,1,1,1000,1000
1778788392.85997605,66045238,1,0.000932991795707494,0.0009932147804647684,0.0010368665680289268,-0.002757804002612829,-0.0022788974456489086,-9.818527221679688,0,0,28.84926414489746,1,1,760,800
1778788392.89996004,66085222,0,0.0009506189380772412,0.0009200842468999326,0.00094500562408939,-0.001306055928580463,-0.0013589905574917793,-9.817142486572266,0,0,28.851417541503906,1,1,1000,1000
1778788392.89996004,66085222,1,0.0008138224948197603,0.0007899565971456468,0.0011414034524932504,-0.001614984474144876,0.0013261607382446527,-9.817687034606934,0,0,28.851417541503906,1,1,760,800
1778788392.93994403,66125206,0,0.0009534268756397069,0.0008711374830454588,0.000996020040474832,-0.0012131413677707314,-0.0005248147645033896,-9.815933227539062,0,0,28.85357093811035,1,1,1000,1000
1778788392.93994403,66125206,1,0.0009881923906505108,0.000897220044862479,0.0009129361133091152,-0.0015896012773737311,-0.0015985947102308273,-9.816545486450195,0,0,28.85357093811035,1,1,760,800
1778788392.97992802,66165190,0,0.0009639316704124212,0.0009267668356187642,0.0009012593072839081,-0.0011784309754148126,-0.0006320611573755741,-9.818537712097168,0,0,28.855722427368164,1,1,1000,1000
1778788392.97992802,66165190,1,0.0009535555727779865,0.0010175076313316822,0.0008520944975316525,-0.0024505110923200846,0.00011681774776661769,-9.818769454956055,0,0,28.855722427368164,1,1,760,800
1778788393.01991200,66205174,0,0.0009478107676841319,0.0009139704634435475,0.0009750751778483391,-0.001305868267081678,-0.0008680603932589293,-9.817156791687012,0,0,28.85787582397461,1,1,1000,1000
1778788393.01991200,66205174,1,0.0009507060749456286,0.0009018906857818365,0.0010126791894435883,-0.0033680140040814877,-0.0011812985176220536,-9.818305969238281,0,0,28.85787582397461,1,1,760,800
1778788393.05989599,66245158,0,0.0009787618182599545,0.0009303325787186623,0.0010519882198423147,-0.0004167663282714784,-0.001667719567194581,-9.817419052124023,0,0,28.860027313232422,1,1,1000,1000
1778788393.05989599,66245158,1,0.0008023427799344063,0.0009332209010608494,0.0009403708390891552,-0.0015935651026666164,0.000565262627787888,-9.816902160644531,0,0,28.860027313232422,1,1,760,800
1778788393.09987998,66285142,0,0.0008847194840200245,0.0009634256130084395,0.0009408122859895229,-0.001438592211343348,-0.00010621346882544458,-9.816558837890625,0,0,28.862178802490234,1,1,1000,1000
1778788393.09987998,66285142,1,0.0010914475424215198,0.0009933369001373649,0.0010809572413563728,-0.003097863867878914,-0.0005848276196047664,-9.81755256652832,0,0,28.862178802490234,1,1,760,800
1778788393.13986397,66325126,0,0.0009056281996890903,0.0009000000427477062,0.000812860147561878,-0.001401183195412159,-0.0015229681739583611,-9.817601203918457,0,0,28.864330291748047,1,1,1000,1000
1778788393.13986397,66325126,1,0.0010906171519309282,0.0008101051207631826,0.0008106839377433062,0.0016591346357017756,-0.0017775299493223429,-9.816271781921387,0,0,28.864330291748047,1,1,760,800
1778788393.17984796,66365110,0,0.0008835355401970446,0.0008872554753907025,0.0009099476155824959,-0.0005513392388820648,-0.00026176616665907204,-9.816549301147461,0,0,28.866483688354492,1,1,1000,1000
1778788393.17984796,66365110,1,0.0009534019627608359,0.0009749071905389428,0.0008467442239634693,-0.0006350363837555051,-0.0008226592908613384,-9.817354202270508,0,0,28.866483688354492,1,1,760,800
1778788393.21983194,66405094,0,0.0009491480304859579,0.0010065134847536683,0.0009356657974421978,-0.000617527577560395,-0.0008061905391514301,-9.817715644836426,0,0,28.868633270263672,1,1,1000,1000
1778788393.21983194,66405094,1,0.0008142571896314621,0.0007636658847332001,0.001009112223982811,-0.0015991239342838526,0.0006851347861811519,-9.814387321472168,0,0,28.868633270263672,1,1,760,800
1778788393.25981593,66445078,0,0.0009508485090918839,0.0008827225537970662,0.0009436403634026647,-3.12807533191517e-05,-0.001051270985044539,-9.818345069885254,0,0,28.870784759521484,1,1,1000,1000
1778788393.25981593,66445078,1,0.0008183298632502556,0.0008231917163357139,0.0009193237056024373,-0.0005747891846112907,-0.0008459629025310278,-9.815350532531738,0,0,28.870784759521484,1,1,760,800
1778788393.29979992,66485062,0,0.0009125291253440082,0.0009056649287231266,0.0009492113022133708,-0.0009770215256139636,-0.0006531288963742554,-9.81699275970459,0,0,28.872987747192383,1,1,1000,1000
1778788393.29979992,66485062,1,0.0006661154329776764,0.0009688562131486833,0.0008972476935014129,3.4913438867079094e-05,-0.0004479036433622241,-9.818365097045898,0,0,28.872987747192383,1,1,760,800
1778788393.33978415,66525046,0,0.0009785547154024243,0.000909887719899416,0.0008960721315816045,-0.0005659472080878913,-0.0015733189648017287,-9.817121505737305,0,0,28.875139236450195,1,1,1000,1000
1778788393.33978415,66525046,1,0.0009916748385876417,0.0008580637513659894,0.0010687247850000858,6.441034201998264e-05,-0.0012881818693131208,-9.818275451660156,0,0,28.875139236450195,1,1,760,800
1778788393.37976813,66565030,0,0.0009319140808656812,0.0009405807359144092,0.0009151807171292603,0.00019640861137304455,-0.001165613066405058,-9.817218780517578,0,0,28.877288818359375,1,1,1000,1000
1778788393.37976813,66565030,1,0.0008884265553206205,0.0010168923763558269,0.0011680799070745707,-0.0016083114314824343,0.0009706100099720061,-9.818058013916016,0,0,28.877288818359375,1,1,760,800
1778788393.41975212,66605014,0,0.0009501859312877059,0.000924432766623795,0.0008819184731692076,-0.0002589685609564185,-0.0010759542929008603,-9.818424224853516,0,0,28.879436492919922,1,1,1000,1000
1778788393.41975212,66605014,1,0.000761601550038904,0.0009361011907458305,0.000956393254455179,-0.0003856547409668565,-0.0014127603499218822,-9.817416191101074,0,0,28.879436492919922,1,1,760,800
1778788393.45973611,66644998,0,0.000946518499404192,0.0009965633507817984,0.0008924081921577454,-0.0011425246484577656,-0.0015360105317085981,-9.817577362060547,0,0,28.881532669067383,1,1,1000,1000
1778788393.45973611,66644998,1,0.0012559134047478437,0.0007190404576249421,0.0007173593621701002,-0.0012371523771435022,-0.0014183514285832644,-9.817126274108887,0,0,28.881532669067383,1,1,760,800
1778788393.49972010,66684982,0,0.001002180390059948,0.0009646328981034458,0.0009462160523980856,-0.0015286525012925267,-0.0009650478605180979,-9.817876815795898,0,0,28.883682250976562,1,1,1000,1000
1778788393.49972010,66684982,1,0.0008705832296982408,0.000928012712392956,0.000901946215890348,0.0012357549276202917,-0.001021925127133727,-9.815160751342773,0,0,28.883682250976562,1,1,760,800
1778788393.53970408,66724966,0,0.0009176700259558856,0.0009695190819911659,0.0010210340842604637,-0.0007830667309463024,-0.0004596315848175436,-9.818058967590332,0,0,28.885831832885742,1,1,1000,1000
1778788393.53970408,66724966,1,0.0007803358021192253,0.0010218089446425438,0.0010367173235863447,-0.0007700191927142441,-0.0018237081822007895,-9.817182540893555,0,0,28.885831832885742,1,1,760,800
1778788393.57968807,66764950,0,0.0009399751434102654,0.0009353413479402661,0.0008956937817856669,-0.001417901716195047,-0.0007240554550662637,-9.816023826599121,0,0,28.88797950744629,1,1,1000,1000
1778788393.57968807,66764950,1,0.000996577786281705,0.0011287180241197348,0.001046295277774334,-0.0028758090920746326,0.0003561910707503557,-9.817098617553711,0,0,28.88797950744629,1,1,760,800
1778788393.61967206,66804934,0,0.0009140638867393136,0.0009386080782860518,0.0009296868811361492,-0.00047821979387663305,-0.0018272246234118938,-9.817831993103027,0,0,28.89012908935547,1,1,1000,1000
1778788393.61967206,66804934,1,0.0006454755202867091,0.0009836400859057903,0.0007417576853185892,-0.003336424706503749,0.0010261631105095148,-9.817713737487793,0,0,28.89012908935547,1,1,760,800
1778788393.65965605,66844918,0,0.0009095837594941258,0.0009106122888624668,0.0009376744274049997,-0.002475445158779621,0.0006565756630152464,-9.817955017089844,0,0,28.892274856567383,1,1,1000,1000
1778788393.65965605,66844918,1,0.0008235006825998425,0.0009719745721668005,0.0010342311579734087,4.0272745536640286e-05,-0.0015962501056492329,-9.818073272705078,0,0,28.892274856567383,1,1,760,800
1778788393.69964004,66884902,0,0.0009651705040596426,0.0009518906008452177,0.0009635955793783069,-4.450291089597158e-05,-0.0006729648448526859,-9.817899703979492,0,0,28.89442253112793,1,1,1000,1000
1778788393.69964004,66884902,1,0.0009989789687097073,0.0009000410209409893,0.0008909096941351891,-0.0019492597784847021,0.0016652591293677688,-9.81690788269043,0,0,28.89442253112793,1,1,760,800
1778788393.73962402,66924886,0,0.0009629229898564517,0.0009420206188224256,0.0009376381640322506,-0.0005058254464529455,-0.0006996119045652449,-9.81833267211914,0,0,28.896570205688477,1,1,1000,1000
1778788393.73962402,66924886,1,0.0008806020487099886,0.0009200665517710149,0.0012715234188362956,-0.00022603399702347815,-0.0015790265752002597,-9.817026138305664,0,0,28.896570205688477,1,1,760,800
1778788393.77960801,66964870,0,0.0009154593572020531,0.0010373889235779643,0.001009578350931406,-0.001358658540993929,-0.0005635344423353672,-9.817697525024414,0,0,28.898717880249023,1,1,1000,1000
1778788393.77960801,66964870,1,0.0010178786469623446,0.0011258545564487576,0.0009810645133256912,-0.002192727057263255,-0.0028084763325750828,-9.818357467651367,0,0,28.898717880249023,1,1,760,800
1778788393.81959200,67004854,0,0.0009466471383348107,0.0009321258403360844,0.0009265856351703405,-0.0006558537133969367,-0.0015791638288646936,-9.817688941955566,0,0,28.900863647460938,1,1,1000,1000
1778788393.81959200,67004854,1,0.0009817089885473251,0.0009470585500821471,0.0010763166937977076,-0.0021636714227497578,8.102868014248088e-05,-9.820436477661133,0,0,28.900863647460938,1,1,760,800
1778788393.85957599,67044838,0,0.0009288624278269708,0.0008865309646353126,0.0008892764453776181,-0.0012793946079909801,-0.000631050206720829,-9.817508697509766,0,0,28.903011322021484,1,1,1000,1000
1778788393.85957599,67044838,1,0.000982636003755033,0.0008993277442641556,0.0007880374323576689,-0.0006689806468784809,0.00033074821112677455,-9.817819595336914,0,0,28.903011322021484,1,1,760,800
1778788393.89955997,67084822,0,0.0010032295249402523,0.000957741285674274,0.0009527302463538945,-0.0008378927013836801,-0.0004230246413499117,-9.816598892211914,0,0,28.9051570892334,1,1,1000,1000
1778788393.89955997,67084822,1,0.0010209473548457026,0.0009850905044004321,0.0009404266602359712,-0.0018850117921829224,0.0020075386855751276,-9.820854187011719,0,0,28.9051570892334,1,1,760,800
1778788393.93954396,67124806,0,0.00089347327593714,0.0009055108530446887,0.000985418213531375,-0.000996435061097145,-0.0018674619495868683,-9.817224502563477,0,0,28.907302856445312,1,1,1000,1000
1778788393.93954396,67124806,1,0.00088999088620767,0.0009418818517588079,0.000976052600890398,-0.001191700343042612,-0.0022069283295422792,-9.818206787109375,0,0,28.907302856445312,1,1,760,800
1778788393.97952795,67164790,0,0.0009952877881005406,0.0008775033056735992,0.0009421503054909408,-0.0011617811396718025,-0.0016743299784138799,-9.817777633666992,0,0,28.909448623657227,1,1,1000,1000
1778788393.97952795,67164790,1,0.000993151101283729,0.0007482950459234416,0.0008453152840957046,-0.001511351321823895,-0.0008362667285837233,-9.817069053649902,0,0,28.909448623657227,1,1,760,800
1778788394.01951194,67204774,0,0.0009216120815835893,0.0009751913603395224,0.0008992388029582798,-0.0009979857131838799,-0.0011461593676358461,-9.81743049621582,0,0,28.911592483520508,1,1,1000,1000
1778788394.01951194,67204774,1,0.0009002939914353192,0.0008412750321440399,0.000924175139516592,9.164262155536562e-05,-2.626444438647013e-05,-9.817496299743652,0,0,28.911592483520508,1,1,760,800
1778788394.05949593,67244758,0,0.000987462466582656,0.0010009853867813945,0.0009537970181554556,-0.001642927760258317,-0.000912791583687067,-9.817361831665039,0,0,28.913738250732422,1,1,1000,1000
1778788394.05949593,67244758,1,0.0009922333993017673,0.0008868582081049681,0.0011077738599851727,0.0007828420493751764,-0.0013576264027506113,-9.819534301757812,0,0,28.913738250732422,1,1,760,800
1778788394.09948015,67284742,0,0.0008944390574470162,0.0008930424810387194,0.0009526497451588511,-0.0012351090554147959,-0.0009128575911745429,-9.817937850952148,0,0,28.915884017944336,1,1,1000,1000
1778788394.09948015,67284742,1,0.000807371863629669,0.0009038580465130508,0.0010814971756190062,0.000144657475175336,-0.0017434454057365656,-9.816645622253418,0,0,28.915884017944336,1,1,760,800
1778788394.13946414,67324726,0,0.0010198093950748444,0.0009673918248154223,0.0010071780998259783,-0.0027189513202756643,-0.0009926605271175504,-9.817249298095703,0,0,28.918027877807617,1,1,1000,1000
1778788394.13946414,67324726,1,0.0009416079265065491,0.0008534101070836186,0.0008327388786710799,-0.0016755061224102974,-0.00037924732896499336,-9.819204330444336,0,0,28.918027877807617,1,1,760,800
1778788394.17944813,67364710,0,0.0008856125641614199,0.0009360113763250411,0.0009419280104339123,-0.0011608072090893984,-0.00081320118624717,-9.817703247070312,0,0,28.9201717376709,1,1,1000,1000
1778788394.17944813,67364710,1,0.0007967214332893491,0.0009611407294869423,0.0005754663143306971,-0.001771922572515905,-0.0006328790914267302,-9.817445755004883,0,0,28.9201717376709,1,1,760,800
1778788394.21943212,67404694,0,0.0008975701057352126,0.001019880874082446,0.0009215821046382189,-0.002346649067476392,-0.00048659296589903533,-9.817612648010254,0,0,28.92231559753418,1,1,1000,1000
1778788394.21943212,67404694,1,0.0012398104881867766,0.0010239498224109411,0.0008241612231358886,0.000278381077805534,-7.391804683720693e-05,-9.817718505859375,0,0,28.92231559753418,1,1,760,800
1778788394.25941610,67444678,0,0.0009050165535882115,0.0009181685745716095,0.0009083253098651767,-0.0006237734341993928,-0.0012717514764517546,-9.816765785217285,0,0,28.92445945739746,1,1,1000,1000
1778788394.25941610,67444678,1,0.0010839842725545168,0.0009723324328660965,0.0008615349652245641,-0.000978572410531342,0.00036190630635246634,-9.81776237487793,0,0,28.92445945739746,1,1,760,800
1778788394.29940009,67484662,0,0.0009014050010591745,0.0009801629930734634,0.001001033466309309,-0.0018577170558273792,-0.0018003284931182861,-9.81712532043457,0,0,28.926603317260742,1,1,1000,1000
1778788394.29940009,67484662,1,0.0007806584471836686,0.0009041191660799086,0.0008792737498879433,-0.0016646762378513813,-0.0007756106788292527,-9.816913604736328,0,0,28.926603317260742,1,1,760,800
1778788394.33938408,67524646,0,0.0009824966546148062,0.0008865321287885308,0.0009953054832294583,-0.0009269305737689137,-0.0016760877333581448,-9.818437576293945,0,0,28.92874526977539,1,1,1000,1000
1778788394.33938408,67524646,1,0.0010076877661049366,0.0008798227645456791,0.0008581163128837943,-0.001101175555959344,-0.0014580845599994063,-9.816446304321289,0,0,28.92874526977539,1,1,760,800
1778788394.37936807,67564630,0,0.0009357693488709629,0.000991396140307188,0.0009835097007453442,-0.0011219900334253907,-0.0018108789809048176,-9.818115234375,0,0,28.930889129638672,1,1,1000,1000
1778788394.37936807,67564630,1,0.0009025934268720448,0.0007596928626298904,0.0009208731935359538,0.0007794214761815965,-0.0021130077075213194,-9.818466186523438,0,0,28.930889129638672,1,1,760,800
1778788394.41935205,67604614,0,0.0009166483068838716,0.0009485977352596819,0.0009021442383527756,-0.0008276987937279046,-0.0006107742665335536,-9.817627906799316,0,0,28.93303108215332,1,1,1000,1000
1778788394.41935205,67604614,1,0.0010377687867730856,0.0010088784620165825,0.0008246373035944998,-0.0006912911194376647,0.000342071580234915,-9.816523551940918,0,0,28.93303108215332,1,1,760,800
1778788394.45933604,67644598,0,0.0009027713676914573,0.00095471361419186,0.0010305726900696754,-0.0006893551908433437,-0.0003297764924354851,-9.817585945129395,0,0,28.93517303466797,1,1,1000,1000
1778788394.45933604,67644598,1,0.0009392880601808429,0.0009698658832348883,0.000804005772806704,-0.001076257904060185,-0.0031541064381599426,-9.817667961120605,0,0,28.93517303466797,1,1,760,800
1778788394.49932003,67684582,0,0.0009115921566262841,0.0009648511186242104,0.0009913659887388349,-0.0011939678806811571,-0.0004981684614904225,-9.816596984863281,0,0,28.937314987182617,1,1,1000,1000
1778788394.49932003,67684582,1,0.001019370392896235,0.0011041427496820688,0.0007981302333064377,-0.0007552207680419087,-0.0008310021366924047,-9.818886756896973,0,0,28.937314987182617,1,1,760,800
1778788394.53930402,67724566,0,0.0009227341506630182,0.0009820153936743736,0.0008515822701156139,-3.470766023383476e-05,-0.0009805681183934212,-9.817748069763184,0,0,28.939455032348633,1,1,1000,1000
1778788394.53930402,67724566,1,0.0009063277393579483,0.001002598786726594,0.0011959215626120567,-0.0019106609979644418,-0.0003161475178785622,-9.819722175598145,0,0,28.939455032348633,1,1,760,800
1778788394.57928801,67764550,0,0.0010046474635601044,0.0009037836571224034,0.0009262035018764436,-0.0005991818616166711,-0.0021394125651568174,-9.81761646270752,0,0,28.94159698486328,1,1,1000,1000
1778788394.57928801,67764550,1,0.0011509511386975646,0.0009768286254256964,0.0008555398671887815,-0.002362474100664258,-0.0019039430189877748,-9.815343856811523,0,0,28.94159698486328,1,1,760,800
1778788394.61927199,67804534,0,0.0009473656537011266,0.0009348219609819353,0.000933865609113127,-0.0009542775806039572,-0.00017290945106651634,-9.81767463684082,0,0,28.943737030029297,1,1,1000,1000
1778788394.61927199,67804534,1,0.0012046642368659377,0.0008574522798880935,0.000990687869489193,-0.0009709587320685387,0.0001792683469830081,-9.820109367370605,0,0,28.943737030029297,1,1,760,800
1778788394.65925598,67844518,0,0.0009592319838702679,0.0009522230830043554,0.001018214039504528,-0.0006902500172145665,-0.0016061931382864714,-9.817742347717285,0,0,28.945878982543945,1,1,1000,1000
1778788394.65925598,67844518,1,0.001023715129122138,0.0010422349441796541,0.0010020134504884481,-0.0021040625870227814,-0.0029073795303702354,-9.816306114196777,0,0,28.945878982543945,1,1,760,800
1778788394.69923997,67884502,0,0.0009234260069206357,0.0009733196930028498,0.0009308453882113099,-0.000540121691301465,-0.0006051306845620275,-9.817185401916504,0,0,28.94801902770996,1,1,1000,1000
1778788394.69923997,67884502,1,0.0009345611906610429,0.00097364914836362,0.0008885878487490118,-0.0013181453105062246,-0.0020240508019924164,-9.815282821655273,0,0,28.94801902770996,1,1,760,800
1778788394.73922396,67924486,0,0.000988287036307156,0.0009600030025467277,0.0009483049507252872,-0.0010190722532570362,-0.0016084357630461454,-9.816383361816406,0,0,28.950159072875977,1,1,1000,1000
1778788394.73922396,67924486,1,0.0010957956546917558,0.0010396051220595837,0.001206638989970088,-0.0033120447769761086,0.001099148765206337,-9.818302154541016,0,0,28.950159072875977,1,1,760,800
1778788394.77920794,67964470,0,0.0009483940666541457,0.0008974568918347359,0.0009283902472816408,-0.00019215932115912437,-0.0005688828532584012,-9.818248748779297,0,0,28.952299118041992,1,1,1000,1000
1778788394.77920794,67964470,1,0.001195652293972671,0.0008672543917782605,0.0009393537184223533,0.000963549711741507,0.0013369908556342125,-9.817110061645508,0,0,28.952299118041992,1,1,760,800
1778788394.82002497,68005287,0,0.0009715293417684734,0.0009296322241425514,0.0009784456342458725,-0.0011655406560748816,-0.0005457959487102926,-9.817564964294434,0,0,28.954490661621094,1,1,1000,1000
1778788394.82002497,68005287,1,0.0008238839218392968,0.0009006777545437217,0.0008767810650169849,-0.003564543556421995,-0.0023956415243446827,-9.818473815917969,0,0,28.954439163208008,1,1,760,800
1778788394.86000896,68045271,0,0.0009610098786652088,0.0009418274275958538,0.0009505270863883197,-0.0007023471989668906,-0.0011163917370140553,-9.817209243774414,0,0,28.95663070678711,1,1,1000,1000
1778788394.86000896,68045271,1,0.0008789738640189171,0.0010388026712462306,0.0009110703831538558,0.0001424972142558545,-0.000762824434787035,-9.815670013427734,0,0,28.95657730102539,1,1,760,800
1778788394.89999294,68085255,0,0.0009556295699439943,0.0008438543882220984,0.0009711541933938861,-0.0012794759823009372,-0.0016802665777504444,-9.818389892578125,0,0,28.958770751953125,1,1,1000,1000
1778788394.89999294,68085255,1,0.000915306678507477,0.0010018670000135899,0.000730051368009299,-0.002681455574929714,-0.0004271975194569677,-9.819998741149902,0,0,28.958717346191406,1,1,760,800
1778788394.93997693,68125239,0,0.0010510084684938192,0.0009634508169256151,0.000975729082711041,-0.0010605104034766555,0.00031086342642083764,-9.8172025680542,0,0,28.960908889770508,1,1,1000,1000
1778788394.93997693,68125239,1,0.0011108246399089694,0.000792837527114898,0.0009505937341600657,0.0020312252454459667,0.00017878074140753597,-9.816957473754883,0,0,28.96085548400879,1,1,760,800
1778788394.97996092,68165223,0,0.0010065584210678935,0.0009807131718844175,0.0009540608734823763,-0.0017173690721392632,-0.0008136335527524352,-9.816817283630371,0,0,28.962993621826172,1,1,1000,1000
1778788394.97996092,68165223,1,0.0008913691272027791,0.0008231341489590704,0.0012800073018297553,-0.0024346306454390287,-0.0018633239669725299,-9.815881729125977,0,0,28.962993621826172,1,1,760,800
1778788395.01994514,68205207,0,0.0009648608393035829,0.0008970886701717973,0.0009566923836246133,-0.0004203514545224607,-0.0012191690038889647,-9.818320274353027,0,0,28.965131759643555,1,1,1000,1000
1778788395.01994514,68205207,1,0.0008049934986047447,0.0008832388557493687,0.0012699683429673314,-0.005320825148373842,-0.0027646776288747787,-9.81991195678711,0,0,28.965131759643555,1,1,760,800
1778788395.05992913,68245191,0,0.0010167440632358193,0.0009288904839195311,0.0009430883219465613,-0.0005566106410697103,-0.0017835107864812016,-9.81635856628418,0,0,28.967269897460938,1,1,1000,1000
1778788395.05992913,68245191,1,0.0010713479714468122,0.0009125382057391107,0.0009646255057305098,-0.0006270866142585874,-0.0009066059719771147,-9.816941261291504,0,0,28.967269897460938,1,1,760,800
1778788395.09991312,68285175,0,0.0009269526926800609,0.0010278507834300399,0.0009967188816517591,0.00014047724835108966,-0.001075947773642838,-9.817687034606934,0,0,28.969406127929688,1,1,1000,1000
1778788395.09991312,68285175,1,0.0008026814321056008,0.0008571604266762733,0.0009747815784066916,-0.003368407255038619,-0.002093292074277997,-9.815813064575195,0,0,28.969406127929688,1,1,760,800
1778788395.13989711,68325159,0,0.0009292520699091256,0.0009313445189036429,0.0010488132247701287,-0.0007470836280845106,-0.0008420448866672814,-9.817700386047363,0,0,28.97154426574707,1,1,1000,1000
1778788395.13989711,68325159,1,0.0009966825600713491,0.0010021745692938566,0.000929417903535068,0.0023398036137223244,-0.000648438697680831,-9.817811012268066,0,0,28.97154426574707,1,1,760,800
1778788395.17988110,68365143,0,0.0009796759113669395,0.0009631673456169665,0.0009061958407983184,-0.0013975795591250062,-0.00013076062896288931,-9.81652545928955,0,0,28.973682403564453,1,1,1000,1000
1778788395.17988110,68365143,1,0.0007794360863044858,0.000907413603272289,0.0010663364082574844,-0.0005431720637716353,-0.0006474463152699172,-9.815536499023438,0,0,28.973682403564453,1,1,760,800
1778788395.21986508,68405127,0,0.0009919030126184225,0.0009314038325101137,0.0009932953398674726,-0.00023331298143602908,-0.0005399534711614251,-9.817441940307617,0,0,28.975818634033203,1,1,1000,1000
1778788395.21986508,68405127,1,0.000929716567043215,0.0009519566665403545,0.0014637907734140754,-0.002718981122598052,-0.0018506936030462384,-9.817462921142578,0,0,28.975818634033203,1,1,760,800
1778788395.25984907,68445111,0,0.0009382917196489871,0.0009764829301275313,0.0009323991253040731,-0.0007896761526353657,-0.0020165788009762764,-9.81672477722168,0,0,28.977954864501953,1,1,1000,1000
1778788395.25984907,68445111,1,0.0012025635223835707,0.0008314242586493492,0.0006661394727416337,0.0005855793133378029,-0.0010608459124341607,-9.81966781616211,0,0,28.977954864501953,1,1,760,800
1778788395.29983306,68485095,0,0.0009305819403380156,0.0010174931958317757,0.0010384890483692288,-0.00017319789913017303,-0.00018818789976648986,-9.816143989562988,0,0,28.980091094970703,1,1,1000,1000
1778788395.29983306,68485095,1,0.0009064607438631356,0.0011632335372269154,0.000901182065717876,-0.0022340668365359306,-0.0003524239582475275,-9.816535949707031,0,0,28.980091094970703,1,1,760,800
1778788395.33981705,68525079,0,0.0009194340091198683,0.0009522274485789239,0.0009437653352506459,-0.0016205727588385344,-0.0017704839119687676,-9.817145347595215,0,0,28.982227325439453,1,1,1000,1000
1778788395.33981705,68525079,1,0.0009367497987113893,0.0008334041340276599,0.0006718640797771513,-0.0006455967668443918,-0.0003532338887453079,-9.816749572753906,0,0,28.982227325439453,1,1,760,800
1778788395.37980103,68565063,0,0.0009470269433222711,0.0009749979944899678,0.0009961473988369107,-0.0004573655314743519,-0.0009392548818141222,-9.816435813903809,0,0,28.98441505432129,1,1,1000,1000
1778788395.37980103,68565063,1,0.000819446868263185,0.0010734960669651628,0.000957254902459681,-9.919505100697279e-05,-0.0017255623824894428,-9.81566047668457,0,0,28.98441505432129,1,1,760,800
1778788395.41978502,68605047,0,0.000993030029349029,0.0009868761990219355,0.0010131988674402237,-0.0009371495107188821,-0.00018580393225420266,-9.818270683288574,0,0,28.98655128479004,1,1,1000,1000
1778788395.41978502,68605047,1,0.0010062652872875333,0.0009530907846055925,0.0008642655448056757,0.0004794232954736799,-0.0038584652356803417,-9.816730499267578,0,0,28.98655128479004,1,1,760,800
1778788395.45976901,68645031,0,0.0009596855961717665,0.0009659465285949409,0.0010031127603724599,-0.0012722352985292673,-0.001261651748791337,-9.817062377929688,0,0,28.988685607910156,1,1,1000,1000
1778788395.45976901,68645031,1,0.0009536055731587112,0.00098033482208848,0.0009569068788550794,-0.002591652562841773,-0.0016436040168628097,-9.814229965209961,0,0,28.988685607910156,1,1,760,800
1778788395.49975300,68685015,0,0.0010097997728735209,0.0010691010393202305,0.0009662546217441559,-0.0012857711408287287,-0.0006662564119324088,-9.817819595336914,0,0,28.990819931030273,1,1,1000,1000
1778788395.49975300,68685015,1,0.001072758692316711,0.0007584640989080071,0.0009496592683717608,-0.00234278105199337,-0.002878667786717415,-9.819697380065918,0,0,28.990819931030273,1,1,760,800
1778788395.53973699,68724999,0,0.0009577472810633481,0.0009494349360466003,0.0009531796677038074,-0.0005033835768699646,0.00024369615130126476,-9.817218780517578,0,0,28.992902755737305,1,1,1000,1000
1778788395.53973699,68724999,1,0.0010743647580966353,0.0008772140135988593,0.0010284828022122383,-0.0005110030760988593,-0.0024948283098638058,-9.817758560180664,0,0,28.992902755737305,1,1,760,800
1778788395.57972097,68764983,0,0.0009569289395585656,0.0009953496046364307,0.000944192404858768,-0.001257717376574874,-0.0018117001745849848,-9.817431449890137,0,0,28.99503517150879,1,1,1000,1000
1778788395.57972097,68764983,1,0.0011365601094439626,0.0010216591181233525,0.0011780626373365521,-0.0023969002068042755,0.0003037875285372138,-9.818315505981445,0,0,28.99503517150879,1,1,760,800
1778788395.61970496,68804967,0,0.0009473313111811876,0.0010108489077538252,0.0010650221956893802,-0.001411154866218567,-0.0013068423140794039,-9.818746566772461,0,0,28.997169494628906,1,1,1000,1000
1778788395.61970496,68804967,1,0.0008941743290051818,0.0007010925328359008,0.000899115577340126,-0.0012863584561273456,-0.00024145303177647293,-9.818619728088379,0,0,28.997169494628906,1,1,760,800
1778788395.65968895,68844951,0,0.0009047393104992807,0.0008997407276183367,0.0010169936576858163,-0.0013805112103000283,-2.530822530388832e-05,-9.817536354064941,0,0,28.999303817749023,1,1,1000,1000
1778788395.65968895,68844951,1,0.001160401152446866,0.001196577912196517,0.0008588517084717751,-0.0003452954115346074,0.002456468064337969,-9.819339752197266,0,0,28.999303817749023,1,1,760,800
1778788395.69967294,68884935,0,0.0010401175823062658,0.0009409550111740828,0.0010582620743662119,-0.00024966985802166164,-0.0006507121142931283,-9.819687843322754,0,0,29.001436233520508,1,1,1000,1000
1778788395.69967294,68884935,1,0.0010535833425819874,0.0009750569006428123,0.0010548471473157406,0.00017906188440974802,-0.002134129870682955,-9.817906379699707,0,0,29.001436233520508,1,1,760,800
1778788395.73965693,68924919,0,0.0009427173645235598,0.0009353901259601116,0.0009438558481633663,-0.0014905063435435295,-0.0021138216834515333,-9.818645477294922,0,0,29.003570556640625,1,1,1000,1000
1778788395.73965693,68924919,1,0.0009672775049693882,0.001103825168684125,0.0012659084750339389,-0.0005097466055303812,-0.0011251000687479973,-9.817235946655273,0,0,29.003570556640625,1,1,760,800
1778788395.77964115,68964903,0,0.0009207827388308942,0.0009934717090800405,0.0009558337042108178,-0.0011359468335285783,-0.0009328768937848508,-9.817816734313965,0,0,29.00570297241211,1,1,1000,1000
1778788395.77964115,68964903,1,0.0009190638083964586,0.0009334057685919106,0.0009571093833073974,0.002802085131406784,-0.001552759320475161,-9.818029403686523,0,0,29.00570297241211,1,1,760,800
1778788395.81962514,69004887,0,0.0009587837848812342,0.0008918792009353638,0.0009305589483119547,-0.0012747414875775576,-0.001516391639597714,-9.817944526672363,0,0,29.007835388183594,1,1,1000,1000
1778788395.81962514,69004887,1,0.000845036469399929,0.0008864981937222183,0.0008886178256943822,-0.0031484002247452736,-0.0023118031676858664,-9.816265106201172,0,0,29.007835388183594,1,1,760,800
1778788395.85960913,69044871,0,0.0010197458323091269,0.0009905716869980097,0.0010292138904333115,-0.0020110681653022766,-0.0011921327095478773,-9.817174911499023,0,0,29.009967803955078,1,1,1000,1000
1778788395.85960913,69044871,1,0.0010686228051781654,0.0009230384603142738,0.0009201338980346918,-0.0016350243240594864,0.0010113132884725928,-9.815571784973145,0,0,29.009967803955078,1,1,760,800
1778788395.89959311,69084855,0,0.0009672842570580542,0.000913547002710402,0.0009780758991837502,-0.0007225553854368627,-0.0009518585866317153,-9.816997528076172,0,0,29.012100219726562,1,1,1000,1000
1778788395.89959311,69084855,1,0.001116544590331614,0.0009457903215661645,0.0009833177318796515,-0.0017289654351770878,-0.0003865935141220689,-9.818964004516602,0,0,29.012100219726562,1,1,760,800
1778788395.93957710,69124839,0,0.0009636262548156083,0.0010233009234070778,0.0009369570179842412,-0.001689522061496973,-0.001035394030623138,-9.817608833312988,0,0,29.014230728149414,1,1,1000,1000
1778788395.93957710,69124839,1,0.000968659995123744,0.0008036926155909896,0.0009160907356999815,0.00022680783877149224,-2.1440275304485112e-05,-9.815686225891113,0,0,29.014230728149414,1,1,760,800
1778788395.97956109,69164823,0,0.0010197337251156569,0.0009312198380939662,0.0010142686078324914,-0.0014530159533023834,-0.0017950042383745313,-9.817153930664062,0,0,29.016361236572266,1,1,1000,1000
1778788395.97956109,69164823,1,0.0007718629203736782,0.000942167651373893,0.0009497212013229728,-0.0011426546843722463,-0.0015680514043197036,-9.818090438842773,0,0,29.016361236572266,1,1,760,800
1778788396.01954508,69204807,0,0.0009337732335552573,0.0010334855178371072,0.0009473214740864933,-0.0010305632604286075,-0.0017918606754392385,-9.817591667175293,0,0,29.01849365234375,1,1,1000,1000
1778788396.01954508,69204807,1,0.0010000243782997131,0.0010073285084217787,0.0009097661240957677,-0.00176241563167423,-0.0002619775477796793,-9.819931030273438,0,0,29.01849365234375,1,1,760,800
1778788396.05952907,69244791,0,0.0009711067541502416,0.0009678846108727157,0.0010294661624357104,-0.0012257599737495184,-0.0007497326005250216,-9.818412780761719,0,0,29.02062225341797,1,1,1000,1000
1778788396.05952907,69244791,1,0.000950804736930877,0.0009072974207811058,0.0007021973142400384,-0.002988473977893591,-0.00017998817202169448,-9.816689491271973,0,0,29.02062225341797,1,1,760,800
1778788396.09951305,69284775,0,0.0009735104395076632,0.0010274251690134406,0.0009539345046505332,-0.0006639911443926394,-0.001138853607699275,-9.8180570602417,0,0,29.022754669189453,1,1,1000,1000
1778788396.09951305,69284775,1,0.0010332257952541113,0.000859311141539365,0.0010379672748968005,0.0006029476644471288,-0.0004941052757203579,-9.817559242248535,0,0,29.022754669189453,1,1,760,800
1778788396.13949704,69324759,0,0.0009779806714504957,0.0009798251558095217,0.0010763261234387755,-0.0014603737508878112,-0.0011304913787171245,-9.816576957702637,0,0,29.024885177612305,1,1,1000,1000
1778788396.13949704,69324759,1,0.0009757953812368214,0.0010318370768800378,0.001185510540381074,-0.002488940255716443,-0.0003854020033031702,-9.815902709960938,0,0,29.024885177612305,1,1,760,800
1778788396.17948103,69364743,0,0.0009259932558052242,0.0009127767407335341,0.0009995006257668138,-0.0005884417332708836,-0.0014642809983342886,-9.817058563232422,0,0,29.027013778686523,1,1,1000,1000
1778788396.17948103,69364743,1,0.0008338416228070855,0.0009213827433995903,0.0008594493847340345,-0.0019313010852783918,-0.0010613023769110441,-9.81549072265625,0,0,29.027013778686523,1,1,760,800
1778788396.21946502,69404727,0,0.001006843987852335,0.00097616296261549,0.0009429032797925174,-0.0015583733329549432,-0.0003650040307547897,-9.81637191772461,0,0,29.029144287109375,1,1,1000,1000
1778788396.21946502,69404727,1,0.0010429976973682642,0.0009386009769514203,0.000941603328101337,-0.0028387263882905245,-0.0007741039735265076,-9.8201265335083,0,0,29.029144287109375,1,1,760,800
1778788396.25944901,69444711,0,0.0009947875514626503,0.0009492791723459959,0.000990268774330616,-0.001580187352374196,-0.0013572530588135123,-9.817253112792969,0,0,29.031272888183594,1,1,1000,1000
1778788396.25944901,69444711,1,0.0009971184190362692,0.0009278549114242196,0.000891100789885968,-0.0003366176679264754,-0.0009025469189509749,-9.816654205322266,0,0,29.031272888183594,1,1,760,800
1778788396.29943299,69484695,0,0.0010076833423227072,0.0009455708786845207,0.000956666306592524,-0.001138016115874052,-0.0009621686185710132,-9.817425727844238,0,0,29.033401489257812,1,1,1000,1000
1778788396.29943299,69484695,1,0.0009579031611792743,0.0009593189461156726,0.0011917318915948272,-0.0018276483751833439,-0.005735061597079039,-9.815752029418945,0,0,29.033401489257812,1,1,760,800
1778788396.33941698,69524679,0,0.0010113440221175551,0.000979502685368061,0.0009856963297352195,-0.0011984771117568016,-0.0010602421825751662,-9.81684684753418,0,0,29.03553009033203,1,1,1000,1000
1778788396.33941698,69524679,1,0.0008975841337814927,0.0009974807035177946,0.0011483273701742291,0.0008950313786044717,-0.0009278593934141099,-9.818052291870117,0,0,29.03553009033203,1,1,760,800
1778788396.37940097,69564663,0,0.001010268577374518,0.0009907992789521813,0.0009243977256119251,-0.00014472212933469564,-0.0019520263886079192,-9.817512512207031,0,0,29.03765869140625,1,1,1000,1000
1778788396.37940097,69564663,1,0.0009727478609420359,0.0010633545462042093,0.0009971244726330042,0.0004699317505583167,-0.0009988534729927778,-9.816959381103516,0,0,29.03765869140625,1,1,760,800
1778788396.41938496,69604647,0,0.0009812021162360907,0.0009746231371536851,0.0010343611938878894,-0.0007482973160222173,-0.0008735093288123608,-9.818294525146484,0,0,29.03978729248047,1,1,1000,1000
1778788396.41938496,69604647,1,0.0011201633606106043,0.0008707247325219214,0.0008600980509072542,-0.0011296611046418548,0.001034311717376113,-9.81778621673584,0,0,29.03978729248047,1,1,760,800
1778788396.45936894,69644631,0,0.00103915692307055,0.000977603835053742,0.0010015075094997883,-0.0009195230668410659,-0.0012604801449924707,-9.817028999328613,0,0,29.041915893554688,1,1,1000,1000
1778788396.45936894,69644631,1,0.0008711447007954121,0.001137993298470974,0.0010768463835120201,-0.002104168524965644,-0.0009843087755143642,-9.816585540771484,0,0,29.041915893554688,1,1,760,800
1778788396.49935293,69684615,0,0.0009670168510638177,0.0009800082771107554,0.0009296465432271361,-0.0008267431985586882,-0.000985402031801641,-9.817087173461914,0,0,29.044042587280273,1,1,1000,1000
1778788396.49935293,69684615,1,0.0010694143129512668,0.0009910771623253822,0.0010685146553441882,-0.0016175503842532635,-0.0006126549560576677,-9.817587852478027,0,0,29.044042587280273,1,1,760,800
1778788396.53933692,69724599,0,0.0009835002711042762,0.0009750537574291229,0.0010004087816923857,-0.0006511211977340281,-0.0004530599690042436,-9.817325592041016,0,0,29.04616928100586,1,1,1000,1000
1778788396.53933692,69724599,1,0.0007154117920435965,0.0009475306142121553,0.0010590008459985256,-0.00047326323692686856,3.103489871136844e-05,-9.816842079162598,0,0,29.04616928100586,1,1,760,800
1778788396.57932115,69764583,0,0.0009701302042230964,0.001029352773912251,0.0010493258014321327,-0.0014295217115432024,-0.0011453013867139816,-9.818320274353027,0,0,29.048297882080078,1,1,1000,1000
1778788396.57932115,69764583,1,0.0008740698685869575,0.0010369663359597325,0.0009370867628604174,-0.0008232694817706943,0.0002987957850564271,-9.817121505737305,0,0,29.048297882080078,1,1,760,800
1778788396.61930513,69804567,0,0.001007608138024807,0.0009946555364876986,0.0010129227302968502,-0.0006513671251013875,-0.0012858681147918105,-9.816723823547363,0,0,29.050424575805664,1,1,1000,1000
1778788396.61930513,69804567,1,0.0010030075209215283,0.0008094673976302147,0.0010340508306398988,-0.0003400163841433823,-0.0013770617078989744,-9.816486358642578,0,0,29.050424575805664,1,1,760,800
1778788396.65928912,69844551,0,0.0009779194369912148,0.0009987454395741224,0.00099375715944916,-0.0006078724982216954,-0.001222970662638545,-9.818031311035156,0,0,29.052549362182617,1,1,1000,1000
1778788396.65928912,69844551,1,0.001012706896290183,0.0010095799807459116,0.0009468143689446151,0.0004850820987485349,0.000691718072630465,-9.819272994995117,0,0,29.052549362182617,1,1,760,800
1778788396.69927311,69884535,0,0.0009882820304483175,0.0009709142614156008,0.0010401798645034432,-0.001515232608653605,-0.0011359602212905884,-9.816645622253418,0,0,29.054676055908203,1,1,1000,1000
1778788396.69927311,69884535,1,0.0010421945480629802,0.0008577760308980942,0.0009578748140484095,-0.0003781510458793491,-0.0011992384679615498,-9.816617965698242,0,0,29.054676055908203,1,1,760,800
1778788396.73925710,69924519,0,0.0010224184952676296,0.000992575311101973,0.0009126468212343752,-0.0013764820760115981,-0.0008236574940383434,-9.81672477722168,0,0,29.056800842285156,1,1,1000,1000
1778788396.73925710,69924519,1,0.0008672956610098481,0.0010588809382170439,0.0009100073948502541,0.001173454220406711,-0.0011531420750543475,-9.816306114196777,0,0,29.056800842285156,1,1,760,800
1778788396.77924109,69964503,0,0.000992301618680358,0.0009767560986801982,0.0009593102149665356,-0.001921395305544138,-0.0003266145649831742,-9.817708969116211,0,0,29.058927536010742,1,1,1000,1000
1778788396.77924109,69964503,1,0.0009858228731900454,0.0009034721879288554,0.0009215534664690495,-0.0033545310143381357,-8.288647222798318e-05,-9.818102836608887,0,0,29.058927536010742,1,1,760,800
1778788396.81922507,70004487,0,0.0009644880192354321,0.0010200651595368981,0.0009973538108170033,0.0003715943021234125,-0.0016007318627089262,-9.817456245422363,0,0,29.061052322387695,1,1,1000,1000
1778788396.81922507,70004487,1,0.0008625441114418209,0.0008362066582776606,0.0010497855255380273,0.00035113177727907896,0.0011569440830498934,-9.818477630615234,0,0,29.061052322387695,1,1,760,800
1778788396.85920906,70044471,0,0.000942076207138598,0.000962963153142482,0.0009698011563159525,-0.001157185179181397,-0.001904423232190311,-9.816539764404297,0,0,29.06317901611328,1,1,1000,1000
1778788396.85920906,70044471,1,0.0009201972279697657,0.0007583670085296035,0.0007543468382209539,-0.001757713151164353,-0.003420153632760048,-9.818282127380371,0,0,29.06317901611328,1,1,760,800
1778788396.90002608,70085288,0,0.001011897111311555,0.0010196797084063292,0.0009942699689418077,-0.0007778687868267298,-0.0011170539073646069,-9.817697525024414,0,0,29.065357208251953,1,1,1000,1000
1778788396.90002608,70085288,1,0.0008777700131759048,0.000979273347184062,0.0009848183253780007,-0.0010647374438121915,0.0006996362935751677,-9.817028045654297,0,0,29.065303802490234,1,1,760,800
1778788396.94001007,70125272,0,0.001010426552966237,0.0009623212390579283,0.0009620528435334563,-0.00034813201637007296,-0.000408177322242409,-9.817407608032227,0,0,29.067480087280273,1,1,1000,1000
1778788396.94001007,70125272,1,0.0010497244074940681,0.000954735791310668,0.0009521624306216836,-0.0005040516844019294,-0.0017834105528891087,-9.819171905517578,0,0,29.067428588867188,1,1,760,800
1778788396.97999406,70165256,0,0.0009944727644324303,0.0009588263346813619,0.0009723503026179969,-0.00011073691712226719,-0.00035357006709091365,-9.818429946899414,0,0,29.069604873657227,1,1,1000,1000
1778788396.97999406,70165256,1,0.0009994753636419773,0.0011065676808357239,0.0008549141348339617,-0.0038415819872170687,-0.0016932976432144642,-9.817327499389648,0,0,29.069551467895508,1,1,760,800
1778788397.01997805,70205240,0,0.0009872252121567726,0.000976660754531622,0.0010161615209653974,-0.0003893575049005449,-0.0011986179742962122,-9.817572593688965,0,0,29.071727752685547,1,1,1000,1000
1778788397.01997805,70205240,1,0.001029094448313117,0.001067100907675922,0.0011143237352371216,-0.00200732983648777,-0.001485333894379437,-9.817943572998047,0,0,29.071674346923828,1,1,760,800
1778788397.05996203,70245224,0,0.0010015241568908095,0.0009913211688399315,0.0010264276061207056,-0.0010104670654982328,-0.0017308734823018312,-9.818033218383789,0,0,29.07379913330078,1,1,1000,1000
1778788397.05996203,70245224,1,0.0011068008607253432,0.0009735592757351696,0.0009874739916995168,-0.0025247232988476753,-0.001008031191304326,-9.816515922546387,0,0,29.07379913330078,1,1,760,800
1778788397.09994602,70285208,0,0.0009926063939929008,0.0010067680850625038,0.0009971087565645576,-0.0014574989909306169,-0.0014832585584372282,-10.003396034240723,0,0,29.075923919677734,1,1,1000,1000
1778788397.09994602,70285208,1,0.0009775847429409623,0.0009730781894177198,0.0012066493509337306,-0.00010152039612876251,6.554399442393333e-05,-10.005574226379395,0,0,29.075923919677734,1,1,760,800
1778788397.13993001,70325192,0,0.0010043317452073097,0.0009889876237139106,0.0010274825617671013,-0.0009296637726947665,-0.0010136353084817529,-10.502392768859863,0,0,29.078044891357422,1,1,1000,1000
1778788397.13993001,70325192,1,0.0010089629795402288,0.0009135769796557724,0.0011413635220378637,-0.0005950387567281723,-0.0011283954372629523,-10.501659393310547,0,0,29.078044891357422,1,1,760,800
1778788397.17991400,70365176,0,0.0009626141982153058,0.0009936043061316013,0.0010103464592248201,-0.0013327320339158177,-0.0010603959672152996,-10.395122528076172,0,0,29.080169677734375,1,1,1000,1000
1778788397.17991400,70365176,1,0.0010776338167488575,0.0010121484519913793,0.0009403741569258273,-0.002123957732692361,-0.0007121004164218903,-10.394464492797852,0,0,29.080169677734375,1,1,760,800
1778788397.21989799,70405160,0,0.001013061497360468,0.0010228753089904785,0.0010453755967319012,-0.001437728526070714,-0.001918438239954412,-10.363421440124512,0,0,29.082290649414062,1,1,1000,1000
1778788397.21989799,70405160,1,0.000884388922713697,0.000741541211027652,0.001007342361845076,-9.691843297332525e-05,-0.0009916891576722264,-10.363616943359375,0,0,29.082290649414062,1,1,760,800
1778788397.25988197,70445144,0,0.0010202236007899046,0.0009559229947626591,0.000983675243332982,-0.0012382295681163669,-0.0014557014219462872,-10.400712966918945,0,0,29.084413528442383,1,1,1000,1000
1778788397.25988197,70445144,1,0.0011365131940692663,0.0009146863012574613,0.0010501367505639791,-0.0013702900614589453,-0.00184880499728024,-10.400989532470703,0,0,29.084413528442383,1,1,760,800
1778788397.29986596,70485128,0,0.0009456148836761713,0.001026918413117528,0.0010516226757317781,-0.001722607295960188,-0.0008290936821140349,-10.390869140625,0,0,29.08653450012207,1,1,1000,1000
1778788397.29986596,70485128,1,0.001004609395749867,0.0009816153906285763,0.0011098908726125956,-0.002719331067055464,-0.001168795395642519,-10.390789031982422,0,0,29.08653450012207,1,1,760,800
1778788397.33984995,70525112,0,0.001039218856021762,0.0009827283211052418,0.0009742291877046227,-0.00027221901109442115,-0.001365286880172789,-10.360889434814453,0,0,29.08865737915039,1,1,1000,1000
1778788397.33984995,70525112,1,0.000988150597549975,0.0011005558772012591,0.0010291642975062132,0.000978170894086361,-0.0009743485134094954,-10.361909866333008,0,0,29.08865737915039,1,1,760,800
1778788397.37983394,70565096,0,0.0010122419334948063,0.0010578776709735394,0.0009923696052283049,-0.0010131638264283538,-0.00024257235054392368,-10.341657638549805,0,0,29.090778350830078,1,1,1000,1000
1778788397.37983394,70565096,1,0.001157283317297697,0.001040349598042667,0.0009275562479160726,-0.001545915030874312,0.0008881074609234929,-10.344233512878418,0,0,29.090778350830078,1,1,760,800
1778788397.41981792,70605080,0,0.001016553957015276,0.0009922379394993186,0.0010209844913333654,-0.0015157341258600354,-0.0027251108549535275,-10.336435317993164,0,0,29.092899322509766,1,1,1000,1000
1778788397.41981792,70605080,1,0.0009235265315510333,0.0010257663670927286,0.0009803298162296414,0.0026663902681320906,0.0012585223885253072,-10.335208892822266,0,0,29.092899322509766,1,1,760,800
1778788397.45980215,70645064,0,0.0009898991556838155,0.0009829270420596004,0.0009736423380672932,-0.0007755543338134885,-0.0009360844269394875,-10.340020179748535,0,0,29.095073699951172,1,1,1000,1000
1778788397.45980215,70645064,1,0.0011480492539703846,0.0008768044644966722,0.0010426775552332401,-0.001929023303091526,0.0003326323931105435,-10.340876579284668,0,0,29.095073699951172,1,1,760,800
1778788397.49978614,70685048,0,0.000987929292023182,0.0010034649167209864,0.0010600604582577944,-0.00035262980964034796,-0.0014572814106941223,-10.351202011108398,0,0,29.09719467163086,1,1,1000,1000
1778788397.49978614,70685048,1,0.0008409737492911518,0.0009890052024275064,0.000993045512586832,0.0004608004237525165,0.0002668165252543986,-10.35240364074707,0,0,29.09719467163086,1,1,760,800
1778788397.53977013,70725032,0,0.0009932960383594036,0.0009840254206210375,0.0010488819098100066,-0.0010957859922200441,-0.0006314035272225738,-10.366983413696289,0,0,29.099313735961914,1,1,1000,1000
1778788397.53977013,70725032,1,0.0009618130279704928,0.0011130860075354576,0.0009396568639203906,-0.000966416671872139,-0.0001762135943863541,-10.367371559143066,0,0,29.099313735961914,1,1,760,800
1778788397.57975411,70765016,0,0.0009631269495002925,0.00101150618866086,0.000990441651083529,-0.0014134987723082304,-0.0008817611960694194,-10.382652282714844,0,0,29.10143280029297,1,1,1000,1000
1778788397.57975411,70765016,1,0.0009759333916008472,0.0009723405819386244,0.001129413372837007,-0.0006303599802777171,-0.0022603219840675592,-10.377836227416992,0,0,29.10143280029297,1,1,760,800
1778788397.61973810,70805000,0,0.0009631901048123837,0.000990676344372332,0.0010399330640211701,-0.0008745135273784399,-0.0016925676027312875,-10.39805793762207,0,0,29.103553771972656,1,1,1000,1000
1778788397.61973810,70805000,1,0.00100907392334193,0.0011247105430811644,0.0009469618089497089,-0.003008254338055849,-0.0005084184231236577,-10.396459579467773,0,0,29.103553771972656,1,1,760,800
1778788397.65972209,70844984,0,0.0010446474188938737,0.0010056131286546588,0.000958041287958622,-0.00042884357389993966,-0.002119652461260557,-10.41465950012207,0,0,29.105619430541992,1,1,1000,1000
1778788397.65972209,70844984,1,0.000859936757478863,0.0009222424123436213,0.001009266939945519,-0.002418627729639411,-0.002573230303823948,-10.413738250732422,0,0,29.105619430541992,1,1,760,800
1778788397.69970608,70884968,0,0.0009332436602562666,0.0010128321591764688,0.0010289507918059826,-0.0007305524777621031,-0.001718682935461402,-10.427777290344238,0,0,29.107738494873047,1,1,1000,1000
1778788397.69970608,70884968,1,0.0011671311222016811,0.000977015821263194,0.0008936211233958602,-0.0017694401321932673,-0.0009958134032785892,-10.427787780761719,0,0,29.107738494873047,1,1,760,800
1778788397.73969007,70924952,0,0.001030940213240683,0.001003266661427915,0.0009935263078659773,-0.001505699590779841,-0.0004453174478840083,-10.448966979980469,0,0,29.109859466552734,1,1,1000,1000
1778788397.73969007,70924952,1,0.0009408282348886132,0.0009847485926002264,0.0008968639886006713,0.0008584735332988203,-0.0009035676484927535,-10.450891494750977,0,0,29.109859466552734,1,1,760,800
1778788397.77967405,70964936,0,-0.015692632645368576,-0.015436947345733643,0.0010973539901897311,-0.00023165906895883381,-0.0011440340895205736,-13.600114822387695,0,0,29.111976623535156,1,1,1000,1000
1778788397.77967405,70964936,1,-0.015915080904960632,-0.015367529354989529,0.0012587085366249084,-0.002830738900229335,-0.0016877952730283141,-13.61231517791748,0,0,29.111976623535156,1,1,760,800
1778788397.81965804,71004920,0,-0.01976698637008667,-0.01872454211115837,0.0012411110801622272,-0.0032043294049799442,0.0010487181134521961,-15.151910781860352,0,0,29.114093780517578,1,1,1000,1000
1778788397.81965804,71004920,1,-0.019698049873113632,-0.018729016184806824,0.0011525243753567338,-0.0029817409813404083,0.0009586162632331252,-15.153495788574219,0,0,29.114093780517578,1,1,760,800
1778788397.85964203,71044904,0,-0.01784529723227024,-0.017853498458862305,0.001467870781198144,-0.008168913424015045,0.007153346203267574,-14.639036178588867,0,0,29.1162109375,1,1,1000,1000
1778788397.85964203,71044904,1,-0.017841622233390808,-0.017682388424873352,0.0016026418888941407,-0.007018662989139557,0.005889997351914644,-14.634614944458008,0,0,29.1162109375,1,1,760,800
1778788397.89962602,71084888,0,-0.015568815171718597,-0.015820685774087906,0.001600191812030971,-0.012968531809747219,0.01088692806661129,-13.532173156738281,0,0,29.118330001831055,1,1,1000,1000
1778788397.89962602,71084888,1,-0.01571909710764885,-0.015826478600502014,0.0017522138077765703,-0.012513736262917519,0.010769736021757126,-13.527594566345215,0,0,29.118330001831055,1,1,760,800
1778788397.93961000,71124872,0,-0.013960233889520168,-0.01259991992264986,0.0016839834861457348,-0.015162374824285507,0.0142905805259943,-12.29330062866211,0,0,29.120447158813477,1,1,1000,1000
1778788397.93961000,71124872,1,-0.01395041961222887,-0.012513874098658562,0.0017790567362681031,-0.014212672598659992,0.012218108400702477,-12.289278984069824,0,0,29.120447158813477,1,1,760,800
1778788397.97959399,71164856,0,-0.011279473081231117,-0.00959794968366623,0.001660608104430139,-0.014960994012653828,0.012878254055976868,-11.160771369934082,0,0,29.1225643157959,1,1,1000,1000
1778788397.97959399,71164856,1,-0.011106426827609539,-0.009535250253975391,0.0017733130371198058,-0.015965895727276802,0.014508619904518127,-11.16057300567627,0,0,29.1225643157959,1,1,760,800
1778788398.01957798,71204840,0,-0.006705029401928186,-0.006436405703425407,0.0017183374147862196,-0.011818300001323223,0.01097652968019247,-10.24938678741455,0,0,29.12468147277832,1,1,1000,1000
1778788398.01957798,71204840,1,-0.006842592731118202,-0.006417218130081892,0.001764044165611267,-0.008260669186711311,0.0106305330991745,-10.24980354309082,0,0,29.12468147277832,1,1,760,800
1778788398.05956197,71244824,0,-0.0038068273570388556,-0.0033117751590907574,0.00165469478815794,-0.009514918550848961,0.007172581274062395,-9.610183715820312,0,0,29.12679672241211,1,1,1000,1000
1778788398.05956197,71244824,1,-0.003880416741594672,-0.0034141619689762592,0.0016779600409790874,-0.00967065803706646,0.005691135302186012,-9.611787796020508,0,0,29.12679672241211,1,1,760,800
1778788398.09954596,71284808,0,-0.0008443334372714162,-0.00046126110828481615,0.0017207445343956351,-0.006130107678472996,0.0019419175805523992,-9.278079986572266,0,0,29.12891387939453,1,1,1000,1000
1778788398.09954596,71284808,1,-0.0008691269904375076,-0.0003764767316170037,0.0016910489648580551,-0.004724089987576008,0.004276046063750982,-9.27916145324707,0,0,29.12891387939453,1,1,760,800
1778788398.13952994,71324792,0,0.0016165683045983315,0.002047467976808548,0.0017111871857196093,-0.002143367426469922,0.001006328733637929,-9.177408218383789,0,0,29.131031036376953,1,1,1000,1000
1778788398.13952994,71324792,1,0.00169157306663692,0.002117732772603631,0.0017313077114522457,-0.0037293469067662954,-0.0004032733559142798,-9.179844856262207,0,0,29.131031036376953,1,1,760,800
1778788398.17951393,71364776,0,0.0044754971750080585,0.00392908975481987,0.0016718313563615084,-0.0008159340941347182,-0.0011428025318309665,-9.263212203979492,0,0,29.133146286010742,1,1,1000,1000
1778788398.17951393,71364776,1,0.004416370764374733,0.003752858843654394,0.0016510506393387914,-0.002260178793221712,-0.0011515694204717875,-9.263619422912598,0,0,29.133146286010742,1,1,760,800
1778788398.21949792,71404760,0,0.00570289883762598,0.006303390488028526,0.0017447104910388589,-0.0003470051451586187,-0.001228999113664031,-9.46231460571289,0,0,29.13526153564453,1,1,1000,1000
1778788398.21949792,71404760,1,0.005431900266557932,0.006088698748499155,0.0017138811526820064,0.0008159255376085639,-0.0023568393662571907,-9.465998649597168,0,0,29.13526153564453,1,1,760,800
1778788398.25948215,71444744,0,0.007316523231565952,0.007552572526037693,0.0016638648230582476,-0.0011116679525002837,-0.0010910936398431659,-9.726895332336426,0,0,29.13737678527832,1,1,1000,1000
1778788398.25948215,71444744,1,0.007163419388234615,0.0074708666652441025,0.0017486417200416327,-0.0016387898940593004,0.00036887609167024493,-9.729907035827637,0,0,29.13737678527832,1,1,760,800
1778788398.29946613,71484728,0,0.008266218937933445,0.00787431001663208,0.0016210731118917465,-0.0012132329866290092,-0.00014316443412099034,-10.003192901611328,0,0,29.13949203491211,1,1,1000,1000
1778788398.29946613,71484728,1,0.008236775174736977,0.007960155606269836,0.0015486443880945444,-0.0002661497564986348,-0.00023601435532327741,-10.002190589904785,0,0,29.13949203491211,1,1,760,800
1778788398.33945012,71524712,0,0.010162771679461002,0.00919368490576744,0.001625876291655004,-0.0023674690164625645,0.0009977458976209164,-10.259150505065918,0,0,29.141605377197266,1,1,1000,1000
1778788398.33945012,71524712,1,0.009991662576794624,0.009140494279563427,0.001590062165632844,-0.003238630946725607,0.0002143731981050223,-10.261515617370605,0,0,29.141605377197266,1,1,760,800
1778788398.37943411,71564696,0,0.011142434552311897,0.010891874320805073,0.001630975166335702,-0.0032179870177060366,0.002295966260135174,-10.470193862915039,0,0,29.143720626831055,1,1,1000,1000
1778788398.37943411,71564696,1,0.011031460016965866,0.010786402970552444,0.0015353603521361947,-0.0034628689754754305,-0.0012174334842711687,-10.469706535339355,0,0,29.143720626831055,1,1,760,800
1778788398.41941810,71604680,0,0.010643416084349155,0.01074310950934887,0.0015362841077148914,-0.004895223770290613,0.002909609582275152,-10.638961791992188,0,0,29.14583396911621,1,1,1000,1000
1778788398.41941810,71604680,1,0.0104645611718297,0.010716518387198448,0.0015903915045782924,-0.006161549128592014,0.002583371941000223,-10.637901306152344,0,0,29.14583396911621,1,1,760,800
1778788398.45940208,71644664,0,0.01226465031504631,0.01097314152866602,0.0014967157039791346,-0.004823246970772743,0.003234634641557932,-10.752931594848633,0,0,29.14794921875,1,1,1000,1000
1778788398.45940208,71644664,1,0.012285841628909111,0.010918162763118744,0.0015032461378723383,-0.004510986618697643,0.00118185393512249,-10.755301475524902,0,0,29.14794921875,1,1,760,800
1778788398.49938607,71684648,0,0.009059075266122818,0.007007370702922344,0.0014980609994381666,-0.005403162911534309,0.0033586344216018915,-10.817626953125,0,0,29.150062561035156,1,1,1000,1000
1778788398.49938607,71684648,1,0.009057402610778809,0.007084439974278212,0.001338763628154993,-0.00852130725979805,0.005757872015237808,-10.815449714660645,0,0,29.150062561035156,1,1,760,800
1778788398.53937006,71724632,0,0.011349544860422611,0.010108084417879581,0.001504932763054967,-0.005002375692129135,0.0044735996052622795,-10.84604263305664,0,0,29.152175903320312,1,1,1000,1000
1778788398.53937006,71724632,1,0.011053667403757572,0.009968256577849388,0.0015470287762582302,-0.00667606433853507,0.004314618185162544,-10.847372055053711,0,0,29.152175903320312,1,1,760,800
1778788398.57935405,71764616,0,0.010097766295075417,0.008672598749399185,0.001425046008080244,-0.007515501230955124,0.004710218403488398,-10.872855186462402,0,0,29.154287338256836,1,1,1000,1000
1778788398.57935405,71764616,1,0.010109489783644676,0.008798785507678986,0.0014662763569504023,-0.00765157351270318,0.004252560902386904,-10.874107360839844,0,0,29.154287338256836,1,1,760,800
1778788398.61933804,71804600,0,0.009109479375183582,0.008821085095405579,0.0015440769493579865,-0.0076362378895282745,0.005594151094555855,-10.84228229522705,0,0,29.156400680541992,1,1,1000,1000
1778788398.61933804,71804600,1,0.008940869942307472,0.008875755593180656,0.0015454089734703302,-0.0067721884697675705,0.00508417934179306,-10.841875076293945,0,0,29.156400680541992,1,1,760,800
1778788398.65932202,71844584,0,0.009645526297390461,0.007261136546730995,0.0016427910886704922,-0.006452267058193684,0.0062608555890619755,-10.851972579956055,0,0,29.158512115478516,1,1,1000,1000
1778788398.65932202,71844584,1,0.009304234758019447,0.007281515747308731,0.0016160027589648962,-0.007876941934227943,0.004214178305119276,-10.850992202758789,0,0,29.158512115478516,1,1,760,800
1778788398.69930601,71884568,0,0.008984016254544258,0.0074494690634310246,0.0015436193207278848,-0.007977575995028019,0.00423917081207037,-10.819243431091309,0,0,29.160625457763672,1,1,1000,1000
1778788398.69930601,71884568,1,0.008875720202922821,0.0076770721934735775,0.0015974553534761071,-0.005806600209325552,0.0037332065403461456,-10.819829940795898,0,0,29.160625457763672,1,1,760,800
1778788398.73929000,71924552,0,0.004288678057491779,0.004882112145423889,0.0015029484638944268,-0.006184329744428396,0.004312232136726379,-10.814884185791016,0,0,29.162736892700195,1,1,1000,1000
1778788398.73929000,71924552,1,0.0041756173595786095,0.004947691224515438,0.0013983080862089992,-0.006991645786911249,0.00604243902489543,-10.815133094787598,0,0,29.162736892700195,1,1,760,800
1778788398.77927399,71964536,0,0.007730209268629551,0.0065818848088383675,0.0015712168533354998,-0.005574729293584824,0.005431721918284893,-10.810970306396484,0,0,29.16484832763672,1,1,1000,1000
1778788398.77927399,71964536,1,0.007925692945718765,0.006463922094553709,0.0015147598460316658,-0.006133692339062691,0.002229498466476798,-10.808605194091797,0,0,29.16484832763672,1,1,760,800
1778788398.81925797,72004520,0,0.0027560140006244183,0.002382529666647315,0.001613162225112319,-0.005811791867017746,0.005398634355515242,-10.80640697479248,0,0,29.166959762573242,1,1,1000,1000
1778788398.81925797,72004520,1,0.002643006853759289,0.0022938193287700415,0.0015969080850481987,-0.007629377767443657,0.00500012980774045,-10.804527282714844,0,0,29.166959762573242,1,1,760,800
1778788398.85924196,72044504,0,0.005621104501187801,0.004740701522678137,0.0014819378266111016,-0.006516745314002037,0.005510253366082907,-10.810632705688477,0,0,29.169071197509766,1,1,1000,1000
1778788398.85924196,72044504,1,0.0055099790915846825,0.004667072091251612,0.0015327450819313526,-0.006990611553192139,0.003001108532771468,-10.807398796081543,0,0,29.169071197509766,1,1,760,800
1778788398.89922595,72084488,0,0.0036260150372982025,0.0027846237644553185,0.0014951174380257726,-0.005593692883849144,0.005396273918449879,-10.818260192871094,0,0,29.171180725097656,1,1,1000,1000
1778788398.89922595,72084488,1,0.0035642748698592186,0.0026804099325090647,0.0016391006065532565,-0.0060764155350625515,0.0044890763238072395,-10.817816734313965,0,0,29.171180725097656,1,1,760,800
1778788398.93920994,72124472,0,0.004824829287827015,0.004689558409154415,0.0014652437530457973,-0.006452317349612713,0.004742644727230072,-10.823712348937988,0,0,29.17329216003418,1,1,1000,1000
1778788398.93920994,72124472,1,0.004993136040866375,0.004789039492607117,0.0015355289215222,-0.005893817637115717,0.004982592537999153,-10.823020935058594,0,0,29.17329216003418,1,1,760,800
1778788398.98002696,72165289,0,0.002205085940659046,0.00146182207390666,0.0014822341036051512,-0.0072660259902477264,0.005410851910710335,-10.833250045776367,0,0,29.175453186035156,1,1,1000,1000
1778788398.98002696,72165289,1,0.002202567644417286,0.0012835963862016797,0.0014693224802613258,-0.006456276401877403,0.002444402314722538,-10.829826354980469,0,0,29.17540168762207,1,1,760,800
1778788399.02001095,72205273,0,0.004115902353078127,0.0020681710448116064,0.0014908586163073778,-0.0065583717077970505,0.00382750085555017,-10.845682144165039,0,0,29.17756462097168,1,1,1000,1000
1778788399.02001095,72205273,1,0.003990451339632273,0.0020011095330119133,0.001509399968199432,-0.005507905036211014,0.0026709504891186953,-10.847898483276367,0,0,29.17751121520996,1,1,760,800
1778788399.05999494,72245257,0,0.0008266748627647758,0.004789724014699459,0.001406575203873217,-0.005515919532626867,0.0037490520626306534,-10.861384391784668,0,0,29.179672241210938,1,1,1000,1000
1778788399.05999494,72245257,1,0.0008591022342443466,0.004839389584958553,0.0013332320377230644,-0.006206330843269825,0.004556720145046711,-10.861709594726562,0,0,29.17962074279785,1,1,760,800
1778788399.09997892,72285241,0,0.0009763589478097856,0.0034560104832053185,0.0014519344549626112,-0.0060790223069489,0.00477891881018877,-10.852849006652832,0,0,29.18178367614746,1,1,1000,1000
1778788399.09997892,72285241,1,0.0010061062639579177,0.0036226820666342974,0.001549539272673428,-0.006483654025942087,0.0037862053140997887,-10.853104591369629,0,0,29.18172836303711,1,1,760,800
1778788399.13996315,72325225,0,0.0018976302817463875,0.0012154696742072701,0.0014593849191442132,-0.007770953234285116,0.004508846905082464,-10.872310638427734,0,0,29.183839797973633,1,1,1000,1000
1778788399.13996315,72325225,1,0.002037669066339731,0.0013742345618084073,0.00156800402328372,-0.0034813026431947947,0.0059722308069467545,-10.874381065368652,0,0,29.183839797973633,1,1,760,800
1778788399.17994714,72365209,0,0.0018620227929204702,0.0013763289898633957,0.0014050781028345227,-0.006632647942751646,0.0031887167133390903,-10.859260559082031,0,0,29.18594741821289,1,1,1000,1000
1778788399.17994714,72365209,1,0.002021106891334057,0.001604592427611351,0.0012355117360129952,-0.0066254534758627415,0.005163207184523344,-10.860939979553223,0,0,29.18594741821289,1,1,760,800
1778788399.21993113,72405193,0,0.003432107623666525,0.0032206187024712563,0.0014247993240132928,-0.0060970839112997055,0.004724007099866867,-10.876206398010254,0,0,29.18805694580078,1,1,1000,1000
1778788399.21993113,72405193,1,0.0033662833739072084,0.0031386343762278557,0.0014094981597736478,-0.006017876323312521,0.004267576150596142,-10.876226425170898,0,0,29.18805694580078,1,1,760,800
1778788399.25991511,72445177,0,0.0028886354994028807,0.002828834345564246,0.0014342556241899729,-0.005777962971478701,0.0029971874319016933,-10.8607816696167,0,0,29.19016456604004,1,1,1000,1000
1778788399.25991511,72445177,1,0.0029561736155301332,0.00280926376581192,0.001536005875095725,-0.004793128930032253,0.0029303794726729393,-10.861989974975586,0,0,29.19016456604004,1,1,760,800
1778788399.29989910,72485161,0,3.0422990676015615e-05,-0.00020672711252700537,0.001373854000121355,-0.0057081314735114574,0.0034778944682329893,-10.87643051147461,0,0,29.192272186279297,1,1,1000,1000
1778788399.29989910,72485161,1,0.00013418485468719155,-0.0002769610146060586,0.001479102997109294,-0.008477682247757912,0.002652652794495225,-10.873526573181152,0,0,29.192272186279297,1,1,760,800
1778788399.33988309,72525145,0,0.00022142610396258533,4.928434691464645e-07,0.001353359199129045,-0.004152609035372734,0.0036465066950768232,-10.853641510009766,0,0,29.194379806518555,1,1,1000,1000
1778788399.33988309,72525145,1,0.000332317897118628,3.727599687408656e-05,0.0014085073489695787,-0.0043988777324557304,0.004938250407576561,-10.855661392211914,0,0,29.194379806518555,1,1,760,800
1778788399.37986708,72565129,0,0.0032583174761384726,0.0030668803956359625,0.0014187477063387632,-0.005556474439799786,0.0035379123874008656,-10.8721342086792,0,0,29.196487426757812,1,1,1000,1000
1778788399.37986708,72565129,1,0.0034282931592315435,0.0030091647058725357,0.0012719130609184504,-0.0023967653978616,0.004324550274759531,-10.872011184692383,0,0,29.196487426757812,1,1,760,800
1778788399.41985106,72605113,0,0.0029083476401865482,0.0028397347778081894,0.0013764570467174053,-0.004851514007896185,0.003137053921818733,-10.849359512329102,0,0,29.198593139648438,1,1,1000,1000
1778788399.41985106,72605113,1,0.0028704458381980658,0.0026878926437348127,0.0013623666018247604,-0.005474196746945381,0.0027155904099345207,-10.849573135375977,0,0,29.198593139648438,1,1,760,800
1778788399.45983505,72645097,0,0.0015028847847133875,-8.014020568225533e-05,0.0013519185595214367,-0.004400223959237337,0.003697998123243451,-10.849096298217773,0,0,29.200700759887695,1,1,1000,1000
1778788399.45983505,72645097,1,0.0015642356593161821,-0.0001866207894636318,0.0014485041610896587,-0.006529323291033506,0.0009709680452942848,-10.84909439086914,0,0,29.200700759887695,1,1,760,800
1778788399.49981904,72685081,0,0.0009460975416004658,-0.001795789459720254,0.0015349674504250288,-0.004745511803776026,0.002446901984512806,-10.77799129486084,0,0,29.20280647277832,1,1,1000,1000
1778788399.49981904,72685081,1,0.0011977260001003742,-0.0017554836813360453,0.0013684608275070786,-0.006763567216694355,0.004102909471839666,-10.780618667602539,0,0,29.20280647277832,1,1,760,800
1778788399.53980303,72725065,0,-0.0006253638421185315,-0.0008222393225878477,0.0015374858630821109,-0.004985639825463295,0.003175482852384448,-10.670435905456543,0,0,29.204965591430664,1,1,1000,1000
1778788399.53980303,72725065,1,-0.0007239232072606683,-0.0008966530440375209,0.0015331999165937304,-0.006186585407704115,0.0006288880249485373,-10.672903060913086,0,0,29.204965591430664,1,1,760,800
1778788399.57978702,72765049,0,-0.00045716340537182987,-0.0006020678556524217,0.0016488953260704875,-0.0041079395450651646,0.0021600769832730293,-10.564550399780273,0,0,29.207073211669922,1,1,1000,1000
1778788399.57978702,72765049,1,-0.0005767310503870249,-0.0006263776449486613,0.0015226912219077349,-0.0014247973449528217,0.003707835916429758,-10.565478324890137,0,0,29.207073211669922,1,1,760,800
1778788399.61977100,72805033,0,-0.0005630770465359092,-0.0006231309380382299,0.001661196118220687,-0.005311677698045969,0.00223105913028121,-10.466315269470215,0,0,29.209177017211914,1,1,1000,1000
1778788399.61977100,72805033,1,-0.00043762443237937987,-0.0006591046694666147,0.0015767711447551847,-0.00480668805539608,0.0035446989350020885,-10.464925765991211,0,0,29.209177017211914,1,1,760,800
1778788399.65975499,72845017,0,-0.0008853954495862126,-0.000847976712975651,0.001594990724697709,-0.0030382967088371515,0.0017668558284640312,-10.37004280090332,0,0,29.21128273010254,1,1,1000,1000
1778788399.65975499,72845017,1,-0.0011096886591985822,-0.0009002611041069031,0.00152791035361588,-0.0032175008673220873,0.0014272170374169946,-10.370807647705078,0,0,29.21128273010254,1,1,760,800
1778788399.69973898,72885001,0,-0.00030692038126289845,-0.00027927046176046133,0.001518309349194169,-0.004903273191303015,0.001504179323092103,-10.287227630615234,0,0,29.213388442993164,1,1,1000,1000
1778788399.69973898,72885001,1,-0.00036349165020510554,-0.00013670332555193454,0.0016423845663666725,-0.006439047399908304,0.0009867646731436253,-10.290345191955566,0,0,29.213388442993164,1,1,760,800
1778788399.73972297,72924985,0,-7.787776848999783e-05,-0.00015726427955087274,0.0015016832621768117,-0.0037714161444455385,0.0011782017536461353,-10.214751243591309,0,0,29.215438842773438,1,1,1000,1000
1778788399.73972297,72924985,1,-0.00010303315502824262,-0.00010937413026113063,0.0014034241903573275,-0.0028916033916175365,0.00045673002023249865,-10.214005470275879,0,0,29.215438842773438,1,1,760,800
1778788399.77970695,72964969,0,0.00015616757445968688,0.0008279314497485757,0.0014243952464312315,-0.0032609906047582626,0.0014631078811362386,-10.151638984680176,0,0,29.217544555664062,1,1,1000,1000
1778788399.77970695,72964969,1,0.00015839804837014526,0.0006619025953114033,0.0014841736992821097,-0.006768283434212208,0.0016780482837930322,-10.151769638061523,0,0,29.217544555664062,1,1,760,800
1778788399.81969094,73004953,0,-0.0007860952173359692,0.0008742407080717385,0.00137037830427289,-0.0030656391754746437,0.0022468252573162317,-10.085417747497559,0,0,29.219648361206055,1,1,1000,1000
1778788399.81969094,73004953,1,-0.0008448530570603907,0.0008201927994377911,0.0015068906359374523,-0.00227507296949625,0.0014733794378116727,-10.087054252624512,0,0,29.219648361206055,1,1,760,800
1778788399.85967493,73044937,0,0.0006205087993294001,0.0005621374002657831,0.001309960032813251,-0.003288266947492957,0.0005370735889300704,-10.033100128173828,0,0,29.221752166748047,1,1,1000,1000
1778788399.85967493,73044937,1,0.0006865749601274729,0.0006085116183385253,0.0012063366593793035,-0.0061939735896885395,0.0024063759483397007,-10.033639907836914,0,0,29.221752166748047,1,1,760,800
1778788399.89965892,73084921,0,0.002132880035787821,-5.902680641156621e-05,0.0012451817747205496,-0.0029012272134423256,0.0020937249064445496,-9.981940269470215,0,0,29.22385597229004,1,1,1000,1000
1778788399.89965892,73084921,1,0.00213661789894104,-0.00022989118588156998,0.0011554453521966934,-0.004628399852663279,0.0022793677635490894,-9.980194091796875,0,0,29.22385597229004,1,1,760,800
1778788399.93964314,73124905,0,-0.001377084874548018,0.0027491843793541193,0.0011432174360379577,-0.003122339490801096,0.001907488564029336,-9.939495086669922,0,0,29.22595977783203,1,1,1000,1000
1778788399.93964314,73124905,1,-0.0013387250946834683,0.0028359973803162575,0.0011099090334028006,-0.004705127328634262,0.0003201188810635358,-9.94137954711914,0,0,29.22595977783203,1,1,760,800
1778788399.97962713,73164889,0,0.002402210608124733,-0.0008680395549163222,0.00110042339656502,-0.003180964384227991,0.0014172510709613562,-9.90015983581543,0,0,29.22806167602539,1,1,1000,1000
1778788399.97962713,73164889,1,0.002406009938567877,-0.0009478983120061457,0.0010918693151324987,-0.0033463207073509693,-0.0010224604047834873,-9.901296615600586,0,0,29.22806167602539,1,1,760,800
1778788400.01961112,73204873,0,-0.0016385139897465706,0.0030934999231249094,0.0009512836113572121,-0.0036485313903540373,0.0007526397239416838,-9.865437507629395,0,0,29.230165481567383,1,1,1000,1000
1778788400.01961112,73204873,1,-0.001658179215155542,0.003149260999634862,0.0009337196825072169,-0.003649784019216895,-0.0004904636298306286,-9.865202903747559,0,0,29.230165481567383,1,1,760,800
1778788400.05959511,73244857,0,0.002508518286049366,-9.715173655422404e-05,0.0008342636283487082,-0.003842486534267664,0.0008614733233116567,-9.835657119750977,0,0,29.232267379760742,1,1,1000,1000
1778788400.05959511,73244857,1,0.0023845918476581573,0.0001173127384390682,0.001024512224830687,-0.004807415418326855,0.0019420392345637083,-9.834553718566895,0,0,29.232267379760742,1,1,760,800
1778788400.09957910,73284841,0,0.0005445280112326145,-0.0007099019712768495,0.0006870334036648273,-0.002047271467745304,0.0001540973171358928,-9.819129943847656,0,0,29.234371185302734,1,1,1000,1000
1778788400.09957910,73284841,1,0.0006467824568971992,-0.0007475619786418974,0.0008679212769493461,-0.004711830522865057,0.0006810741615481675,-9.819640159606934,0,0,29.234371185302734,1,1,760,800
1778788400.13956308,73324825,0,-0.0003908049548044801,0.0022439388558268547,0.0006211877334862947,-0.003181824926286936,0.0008466893341392279,-9.796571731567383,0,0,29.23647117614746,1,1,1000,1000
1778788400.13956308,73324825,1,-0.0004811048856936395,0.0022050351835787296,0.0007859584875404835,-0.00445217452943325,0.00043439184082672,-9.795430183410645,0,0,29.23647117614746,1,1,760,800
1778788400.17954707,73364809,0,0.002796174492686987,0.0011629954678937793,0.0002598605351522565,-0.0029312577098608017,0.0011120995040982962,-9.774785041809082,0,0,29.23857307434082,1,1,1000,1000
1778788400.17954707,73364809,1,0.0027398685924708843,0.0011007359717041254,0.00045479281106963754,-0.0007104981923475862,0.0014751101844012737,-9.774139404296875,0,0,29.23857307434082,1,1,760,800
1778788400.21953106,73404793,0,0.002243800787255168,0.00013307863264344633,0.00034577675978653133,-0.0027629765681922436,0.0005633488763123751,-9.763038635253906,0,0,29.24067497253418,1,1,1000,1000
1778788400.21953106,73404793,1,0.002060823841020465,0.00024554604897275567,0.0003573384019546211,0.0003839004202745855,-0.0015338740777224302,-9.762439727783203,0,0,29.24067497253418,1,1,760,800
1778788400.25951505,73444777,0,0.0016303998418152332,0.00048084103036671877,3.41798659064807e-05,-0.0039896913804113865,0.00037461795727722347,-9.74862003326416,0,0,29.24277687072754,1,1,1000,1000
1778788400.25951505,73444777,1,0.0013212159974500537,0.00028433953411877155,0.0001633061474421993,-0.0014277814188972116,0.0026786222588270903,-9.748359680175781,0,0,29.24277687072754,1,1,760,800
1778788400.29949903,73484761,0,0.002158884424716234,1.0938707418972626e-05,-0.0001694996317382902,-0.0014131786301732063,0.0005025470163673162,-9.738407135009766,0,0,29.244876861572266,1,1,1000,1000
1778788400.29949903,73484761,1,0.0020472239702939987,0.00016662548296153545,-0.0001834081340348348,-0.0018482569139450788,0.0007280937861651182,-9.737210273742676,0,0,29.244876861572266,1,1,760,800
1778788400.33948302,73524745,0,0.0019861815962940454,0.003083550836890936,-0.00019490893464535475,-0.002301678527146578,-0.00039366004057228565,-9.7332763671875,0,0,29.246978759765625,1,1,1000,1000
1778788400.33948302,73524745,1,0.002000603824853897,0.0030803154222667217,-0.0002358944620937109,-0.006364914122968912,0.0008945134468376637,-9.732280731201172,0,0,29.246978759765625,1,1,760,800
1778788400.37946701,73564729,0,0.0007459316402673721,0.0027890964411199093,-0.00014108818140812218,-0.0015069959918037057,-0.0004895607125945389,-9.728482246398926,0,0,29.24907684326172,1,1,1000,1000
1778788400.37946701,73564729,1,0.0005627985810860991,0.002767544938251376,-0.00013420353934634477,-0.0020350294653326273,-0.0013722664443776011,-9.726982116699219,0,0,29.24907684326172,1,1,760,800
1778788400.41945100,73604713,0,-0.0011673920089378953,0.0014931997284293175,-0.0004663776489906013,-0.0036095199175179005,0.00010179936361964792,-9.719680786132812,0,0,29.251176834106445,1,1,1000,1000
1778788400.41945100,73604713,1,-0.0011046543950214982,0.0015427005710080266,-0.0004969470901414752,-0.004248301964253187,-0.0006100994651205838,-9.722156524658203,0,0,29.251176834106445,1,1,760,800
1778788400.45943499,73644697,0,0.0011531204218044877,0.002560579916462302,-0.0007981739472597837,-0.0031833858229219913,-0.00017041049432009459,-9.714116096496582,0,0,29.253276824951172,1,1,1000,1000
1778788400.45943499,73644697,1,0.0013188078301027417,0.0027473086956888437,-0.0007267719483934343,-0.0013027375098317862,0.0015159810427576303,-9.717498779296875,0,0,29.253276824951172,1,1,760,800
1778788400.49941897,73684681,0,0.0002190458180848509,0.002363598207011819,-0.0010886616073548794,-0.001834546565078199,0.0005202722968533635,-9.720271110534668,0,0,29.2553768157959,1,1,1000,1000
1778788400.49941897,73684681,1,0.0004030517302453518,0.002361779101192951,-0.0010955058969557285,-0.0042276326566934586,0.0033697164617478848,-9.722864151000977,0,0,29.2553768157959,1,1,760,800
1778788400.53940296,73724665,0,-0.000659203331451863,0.0029094822239130735,-0.0010404072236269712,-0.0029188496991991997,0.0005706891533918679,-9.727375030517578,0,0,29.257476806640625,1,1,1000,1000
1778788400.53940296,73724665,1,-0.00069357396569103,0.0030329502187669277,-0.0010769458021968603,-0.0028084730729460716,0.0006235606851987541,-9.72671127319336,0,0,29.257476806640625,1,1,760,800
1778788400.57938695,73764649,0,-0.0007168259471654892,0.0027548125945031643,-0.0009826699970290065,-0.0017301697516813874,-0.0014970146585255861,-9.726130485534668,0,0,29.25957489013672,1,1,1000,1000
1778788400.57938695,73764649,1,-0.0006948350928723812,0.0027865127194672823,-0.0009474683320149779,-0.004206441342830658,0.0018043017480522394,-9.726876258850098,0,0,29.25957489013672,1,1,760,800
1778788400.61937094,73804633,0,-0.0014362781075760722,0.0015845526941120625,-0.0008433842449449003,-0.0020485688000917435,-0.0005894770147278905,-9.728479385375977,0,0,29.261672973632812,1,1,1000,1000
1778788400.61937094,73804633,1,-0.0017934609204530716,0.0014653131365776062,-0.0008289116667583585,-0.0035619051195681095,-0.0010635758517310023,-9.72680377960205,0,0,29.261672973632812,1,1,760,800
1778788400.65935493,73844617,0,-0.0025810543447732925,0.0001343920303042978,-0.000746722798794508,-0.001530217588879168,-0.0008760897908359766,-9.729856491088867,0,0,29.263771057128906,1,1,1000,1000
1778788400.65935493,73844617,1,-0.0026167083997279406,-0.0002664475468918681,-0.0007752151577733457,-0.0030000880360603333,0.0006026937626302242,-9.731464385986328,0,0,29.263771057128906,1,1,760,800
1778788400.69933915,73884601,0,-0.001641914015635848,-0.0003929791273549199,-0.0006345384754240513,-0.0020675053820014,-0.0009485743939876556,-9.734823226928711,0,0,29.265869140625,1,1,1000,1000
1778788400.69933915,73884601,1,-0.0016558507923036814,-0.00012451350630726665,-0.00045632844557985663,-0.0023451820015907288,0.00023142126156017184,-9.734110832214355,0,0,29.265869140625,1,1,760,800
1778788400.73932314,73924585,0,-0.000148686594911851,-0.001421127701178193,-0.000567375507671386,-0.002408744301646948,-0.0005011162720620632,-9.737281799316406,0,0,29.267967224121094,1,1,1000,1000
1778788400.73932314,73924585,1,3.7716781662311405e-05,-0.0015070654917508364,-0.0007083165692165494,-0.0003806317981798202,-0.0008690949762240052,-9.737617492675781,0,0,29.267967224121094,1,1,760,800
1778788400.77930713,73964569,0,0.001219400204718113,-0.0001595838402863592,-0.00046614196617156267,-0.0022905729711055756,-0.0006263773539103568,-9.746330261230469,0,0,29.270065307617188,1,1,1000,1000
1778788400.77930713,73964569,1,0.0010921049397438765,-0.00021909273345954716,-0.0004886992392130196,-0.0026503652334213257,0.0009323814301751554,-9.743902206420898,0,0,29.270065307617188,1,1,760,800
1778788400.81929111,74004553,0,-0.0010526279220357537,-0.0006932093529030681,-0.0004198271199129522,-0.0019504835363477468,6.023248715791851e-05,-9.755075454711914,0,0,29.27216148376465,1,1,1000,1000
1778788400.81929111,74004553,1,-0.0010028921533375978,-0.0006477674469351768,-0.0003953389823436737,-0.0002564745373092592,-0.0017972852801904082,-9.753564834594727,0,0,29.27216148376465,1,1,760,800
1778788400.85927510,74044537,0,-0.0007708391058258712,-0.0005786099354736507,-0.0003031771630048752,-0.0018169935792684555,-0.001134374993853271,-9.754616737365723,0,0,29.27425765991211,1,1,1000,1000
1778788400.85927510,74044537,1,-0.0007786941132508218,-0.00041154283098876476,-0.00016366713680326939,-0.0025723115541040897,-0.0027039661072194576,-9.755005836486816,0,0,29.27425765991211,1,1,760,800
1778788400.89925909,74084521,0,-0.0005233034025877714,-0.00032823404762893915,-0.0002103308361256495,-0.001711465185508132,-0.0004253502993378788,-9.756002426147461,0,0,29.276355743408203,1,1,1000,1000
1778788400.89925909,74084521,1,-0.0005508593749254942,-0.0005525076994672418,-0.00011117897520307451,-0.001596715534105897,0.0017810043646022677,-9.757792472839355,0,0,29.276355743408203,1,1,760,800
1778788400.93924308,74124505,0,-0.00043306805309839547,-0.00024562329053878784,-4.755143163492903e-05,-0.0024772086180746555,-0.001013255794532597,-9.757457733154297,0,0,29.278451919555664,1,1,1000,1000
1778788400.93924308,74124505,1,-0.0004956241464242339,-0.00026544061256572604,4.915029421681538e-05,0.0006808758480474353,0.00013479827612172812,-9.760597229003906,0,0,29.278451919555664,1,1,760,800
1778788400.97922707,74164489,0,-0.00022142330999486148,-0.00010991259478032589,-5.253016752249096e-06,-0.0010425625368952751,-0.0012754390481859446,-9.758537292480469,0,0,29.280548095703125,1,1,1000,1000
1778788400.97922707,74164489,1,-0.0003163656801916659,9.109346865443513e-05,-0.00021296474733389914,-0.001132887089625001,-0.0014007727149873972,-9.75948715209961,0,0,29.280548095703125,1,1,760,800
1778788401.01921105,74204473,0,0.0009197243489325047,0.0007054210873320699,-0.00012430630158632994,-0.0010827189544215798,-0.0013347342610359192,-9.771393775939941,0,0,29.282644271850586,1,1,1000,1000
1778788401.01921105,74204473,1,0.0007769276853650808,0.0009801932610571384,-0.0001093269165721722,0.00016006465011741966,-0.0019087640102952719,-9.770645141601562,0,0,29.282644271850586,1,1,760,800
1778788401.06002808,74245290,0,0.0037270369939506054,0.002120975172147155,-0.0001918958150781691,-0.000712143664713949,-0.001957738772034645,-9.779173851013184,0,0,29.284791946411133,1,1,1000,1000
1778788401.06002808,74245290,1,0.0035095680505037308,0.0023294994607567787,-0.00026815207093022764,-0.0018970805685967207,0.0018866037717089057,-9.778459548950195,0,0,29.284740447998047,1,1,760,800
1778788401.10001206,74285274,0,0.004149897489696741,0.003957081586122513,-0.00043700903188437223,-0.0014457963407039642,-0.0012010320788249373,-9.787862777709961,0,0,29.28688621520996,1,1,1000,1000
1778788401.10001206,74285274,1,0.0041585275903344154,0.003950576297938824,-0.00020529654284473509,-0.002622629050165415,7.601501420140266e-05,-9.786898612976074,0,0,29.286834716796875,1,1,760,800
1778788401.13999605,74325258,0,0.003928975202143192,0.0036394810304045677,-0.0005598125280812383,-0.0002493052161298692,-0.0015681376680731773,-9.788753509521484,0,0,29.288982391357422,1,1,1000,1000
1778788401.13999605,74325258,1,0.0037787314504384995,0.003658413654193282,-0.00051501503912732,-0.0030437977984547615,0.001506872707977891,-9.790197372436523,0,0,29.288928985595703,1,1,760,800
1778788401.17998004,74365242,0,0.001958889188244939,0.0033539338037371635,-0.0005846995045430958,-0.0011969568440690637,-0.001205177279189229,-9.792118072509766,0,0,29.29107666015625,1,1,1000,1000
1778788401.17998004,74365242,1,0.0019919376354664564,0.0031755128875374794,-0.0005268369568511844,-0.000834847625810653,-0.0039785439148545265,-9.793478012084961,0,0,29.29102325439453,1,1,760,800
1778788401.21996403,74405226,0,0.0032303459011018276,0.0031222968827933073,-0.00048115121899172664,-0.00045016128569841385,-0.0014441629173234105,-9.796398162841797,0,0,29.29311752319336,1,1,1000,1000
1778788401.21996403,74405226,1,0.0032744803465902805,0.003193082520738244,-0.0005508388858288527,-0.0020748486276715994,-0.0013368329964578152,-9.795351028442383,0,0,29.29311752319336,1,1,760,800
1778788401.25994802,74445210,0,0.0029861379880458117,0.0029244422912597656,-0.00039518499397672713,-0.0013228311436250806,-0.0012034605024382472,-9.797309875488281,0,0,29.29521369934082,1,1,1000,1000
1778788401.25994802,74445210,1,0.0029833202715963125,0.002688259817659855,-0.00034611852606758475,-0.0023119172547012568,-0.0020133070647716522,-9.79757308959961,0,0,29.29521369934082,1,1,760,800
1778788401.29993200,74485194,0,0.002827560994774103,0.0024470663629472256,-0.0002557596599217504,-0.0012700589140877128,-0.0014539253897964954,-9.799837112426758,0,0,29.297306060791016,1,1,1000,1000
1778788401.29993200,74485194,1,0.0027135037817060947,0.0025072672870010138,-0.0002613903197925538,-0.0017575676320120692,-0.00026786199305206537,-9.799034118652344,0,0,29.297306060791016,1,1,760,800
1778788401.33991599,74525178,0,0.0026115914806723595,0.0020443617831915617,-0.00046499312156811357,-0.0017875240882858634,-0.0013087729457765818,-9.806778907775879,0,0,29.299400329589844,1,1,1000,1000
1778788401.33991599,74525178,1,0.0025949059054255486,0.002024673391133547,-0.0006937990547157824,-0.0018454347737133503,-0.001360851339995861,-9.806983947753906,0,0,29.299400329589844,1,1,760,800
1778788401.37989998,74565162,0,0.0023875078186392784,0.0023658801801502705,-0.0006253210012800992,-0.0015766245778650045,-0.0010552105959504843,-9.815495491027832,0,0,29.30149269104004,1,1,1000,1000
1778788401.37989998,74565162,1,0.0023901036474853754,0.002406019950285554,-0.0004941908409819007,-0.003467956092208624,-0.00019298029656056315,-9.815073013305664,0,0,29.30149269104004,1,1,760,800
1778788401.41988397,74605146,0,0.0027189082466065884,0.0022415651474148035,-0.0006194793386384845,-0.0012946277856826782,-0.0017611139919608831,-9.816315650939941,0,0,29.303586959838867,1,1,1000,1000
1778788401.41988397,74605146,1,0.002536144107580185,0.0019834358245134354,-0.0007179402746260166,-0.002928761299699545,-0.0023184549063444138,-9.816862106323242,0,0,29.303586959838867,1,1,760,800
1778788401.45986795,74645130,0,0.00323856296017766,0.001713889418169856,-0.0005536251701414585,-0.0017090791370719671,-0.0012261462397873402,-9.817211151123047,0,0,29.305679321289062,1,1,1000,1000
1778788401.45986795,74645130,1,0.003232970368117094,0.0018743263790383935,-0.0003822308499366045,-0.0006021802546456456,-0.0006751804612576962,-9.816780090332031,0,0,29.305679321289062,1,1,760,800
1778788401.49985194,74685114,0,0.0024461173452436924,-0.00011899572564288974,-0.0006194408051669598,-0.0009493277757428586,-0.0009354283101856709,-9.820882797241211,0,0,29.307771682739258,1,1,1000,1000
1778788401.49985194,74685114,1,0.002604531589895487,-6.959226448088884e-05,-0.0004344908520579338,-0.00010652455239323899,-0.0029708014335483313,-9.819524765014648,0,0,29.307771682739258,1,1,760,800
1778788401.53983593,74725098,0,0.0013127925340086222,0.0010248320177197456,-0.0007290213834494352,-0.001043927506543696,-0.0010839916067197919,-9.822366714477539,0,0,29.309864044189453,1,1,1000,1000
1778788401.53983593,74725098,1,0.0013623434351757169,0.0011311087291687727,-0.0008558569243177772,-1.1635282135102898e-05,-0.0027448181062936783,-9.81979751586914,0,0,29.309864044189453,1,1,760,800
1778788401.57981992,74765082,0,0.0006731200264766812,0.001048977137543261,-0.0009263044921681285,-0.0007991248276084661,-0.0019025150686502457,-9.823846817016602,0,0,29.31195640563965,1,1,1000,1000
1778788401.57981992,74765082,1,0.0006370240007527173,0.0010741660371422768,-0.00077551428694278,-0.002529445569962263,-0.0036755367182195187,-9.824583053588867,0,0,29.31195640563965,1,1,760,800
1778788401.61980414,74805066,0,-0.0002752944710664451,0.00102866196539253,-0.0010418342426419258,-0.0006581586203537881,-0.0022278728429228067,-9.82555103302002,0,0,29.314098358154297,1,1,1000,1000
1778788401.61980414,74805066,1,-0.0001593624911038205,0.001137533108703792,-0.0008576379623264074,0.001979340799152851,-0.0022049653343856335,-9.824350357055664,0,0,29.314098358154297,1,1,760,800
1778788401.65978813,74845050,0,-0.0009583366918377578,0.0009866550099104643,-0.0010033235885202885,-0.0009435343090444803,-0.0014994610100984573,-9.824199676513672,0,0,29.316190719604492,1,1,1000,1000
1778788401.65978813,74845050,1,-0.0010458865435793996,0.0010502899531275034,-0.0009361797710880637,0.002113331574946642,-0.00010992393072228879,-9.824295043945312,0,0,29.316190719604492,1,1,760,800
1778788401.69977212,74885034,0,-0.0013342623133212328,0.0010657231323421001,-0.0011328351683914661,-0.0007730417419224977,-0.0033381786197423935,-9.822866439819336,0,0,29.318281173706055,1,1,1000,1000
1778788401.69977212,74885034,1,-0.001354132778942585,0.001178645994514227,-0.0011133896186947823,-0.0010142172686755657,-0.0024862189311534166,-9.823638916015625,0,0,29.318281173706055,1,1,760,800
1778788401.73975611,74925018,0,-0.0016262766439467669,0.0010808029910549521,-0.0012254004832357168,-0.0008876072242856026,-0.0016699759289622307,-9.823111534118652,0,0,29.32037353515625,1,1,1000,1000
1778788401.73975611,74925018,1,-0.0017185179749503732,0.0008213138207793236,-0.0010268493788316846,0.0003803206200245768,-0.003074053907766938,-9.82148551940918,0,0,29.32037353515625,1,1,760,800
1778788401.77974010,74965002,0,-0.0006759493262507021,0.0005374191096052527,-0.0013260000851005316,-0.0009497918654233217,-0.0010472573339939117,-9.818639755249023,0,0,29.322463989257812,1,1,1000,1000
1778788401.77974010,74965002,1,-0.0008235377026721835,0.0003927494108211249,-0.0011781257344409823,-0.0028660143725574017,-0.0021768950391560793,-9.820289611816406,0,0,29.322463989257812,1,1,760,800
1778788401.81972408,75004986,0,0.0005121406284160912,-0.00027116789715364575,-0.0009453517268411815,-0.0001506898843217641,-0.002449339022859931,-9.817937850952148,0,0,29.324501037597656,1,1,1000,1000
1778788401.81972408,75004986,1,0.00046722672414034605,-0.0002490617334842682,-0.0008589150384068489,-0.0010912398574873805,-0.0017849906580522656,-9.81746768951416,0,0,29.324501037597656,1,1,760,800
1778788401.85970807,75044970,0,-0.0008516698726452887,-0.0006638376507908106,-0.0005490207113325596,-0.00026776164304465055,-0.0018198001198470592,-9.822988510131836,0,0,29.32659149169922,1,1,1000,1000
1778788401.85970807,75044970,1,-0.0010183192789554596,-0.0005800416111014783,-0.0006752278422936797,-0.0010176165960729122,-0.004196544643491507,-9.823212623596191,0,0,29.32659149169922,1,1,760,800
1778788401.89969206,75084954,0,-0.00058812799397856,-0.001216403441503644,-0.0002762932563200593,-0.0008474833448417485,-0.0019467065576463938,-9.826139450073242,0,0,29.32868003845215,1,1,1000,1000
1778788401.89969206,75084954,1,-0.0005299011245369911,-0.0013055803719908,-0.00013918208424001932,0.0009654128807596862,-0.0029678891878575087,-9.824111938476562,0,0,29.32868003845215,1,1,760,800
1778788401.93967605,75124938,0,-0.00042260991176590323,9.74361682892777e-06,5.2226707339286804e-05,3.669942088890821e-05,-0.0033009869512170553,-9.8280029296875,0,0,29.330768585205078,1,1,1000,1000
1778788401.93967605,75124938,1,-0.0003953974519390613,9.5879498985596e-05,6.492029206128791e-05,3.4158671041950583e-05,-0.0025852881371974945,-9.824211120605469,0,0,29.330768585205078,1,1,760,800
1778788401.97966003,75164922,0,-0.00026624021120369434,-0.0004966877168044448,0.0001653378567425534,0.0004109277215320617,-0.003098222892731428,-9.82820987701416,0,0,29.33285903930664,1,1,1000,1000
1778788401.97966003,75164922,1,-0.0004300088039599359,-0.0006665793480351567,0.00012404513836372644,-0.0012344529386609793,-0.0022312055807560682,-9.828948974609375,0,0,29.33285903930664,1,1,760,800
1778788402.01964402,75204906,0,-0.00010760416625998914,-0.0003178658662363887,0.00018836111121345311,-0.00023178450646810234,-0.002186806173995137,-9.82779312133789,0,0,29.33494758605957,1,1,1000,1000
1778788402.01964402,75204906,1,-1.0034265869762748e-05,-0.0004921562504023314,0.00023224778124131262,-0.003503953106701374,-0.0015784793067723513,-9.825973510742188,0,0,29.33494758605957,1,1,760,800
1778788402.05962801,75244890,0,-6.321483670035377e-05,-0.00018732319585978985,0.00022907077800482512,-0.0013390133390203118,-0.0011392695596441627,-9.827043533325195,0,0,29.3370361328125,1,1,1000,1000
1778788402.05962801,75244890,1,6.0394690081011504e-05,-0.0003638425259850919,0.0002653378469403833,0.0008643880719318986,-0.0050081517547369,-9.823657035827637,0,0,29.3370361328125,1,1,760,800
1778788402.09961200,75284874,0,7.474829908460379e-05,-6.709389708703384e-05,0.0003281272074673325,0.0002712618443183601,-0.003049269085749984,-9.827953338623047,0,0,29.339122772216797,1,1,1000,1000
1778788402.09961200,75284874,1,7.484164962079376e-05,-0.00011087875463999808,0.00043364104931242764,-0.0025712200440466404,-0.001193811884149909,-9.825567245483398,0,0,29.339122772216797,1,1,760,800
1778788402.13959599,75324858,0,0.0002283151407027617,5.068113387096673e-05,0.00038001115899533033,0.0006485995254479349,-0.0030874654185026884,-9.826676368713379,0,0,29.34121322631836,1,1,1000,1000
1778788402.13959599,75324858,1,0.0001790624955901876,-1.0092309821629897e-05,0.00044871127465739846,-0.0007163670379668474,-0.0019235741347074509,-9.828695297241211,0,0,29.34121322631836,1,1,760,800
1778788402.17957997,75364842,0,0.0012451179791241884,0.000155532150529325,0.00040449126390740275,0.001359613612294197,-0.003420645836740732,-9.826423645019531,0,0,29.343299865722656,1,1,1000,1000
1778788402.17957997,75364842,1,0.001244487357325852,9.341414988739416e-05,0.000333145959302783,-0.0008182443561963737,-0.006357713136821985,-9.826277732849121,0,0,29.343299865722656,1,1,760,800
1778788402.21956396,75404826,0,0.0011866791173815727,0.00021584512433037162,0.00045639026211574674,-0.0004014244768768549,-0.003221527673304081,-9.826053619384766,0,0,29.345386505126953,1,1,1000,1000
1778788402.21956396,75404826,1,0.0012786269653588533,0.00021558397565968335,0.00030060825520195067,0.0006708641885779798,-0.0035805501975119114,-9.825377464294434,0,0,29.345386505126953,1,1,760,800
1778788402.25954795,75444810,0,0.0011921097757294774,0.0003169470583088696,0.0004804337222594768,0.0006102382903918624,-0.0034750578925013542,-9.826436996459961,0,0,29.347475051879883,1,1,1000,1000
1778788402.25954795,75444810,1,0.001162183005362749,0.0003064365591853857,0.0005441831308417022,0.0015238388441503048,-0.005128756165504456,-9.825536727905273,0,0,29.347475051879883,1,1,760,800
1778788402.29953194,75484794,0,0.0011671566171571612,0.00039771979209035635,0.0005876162904314697,0.00018312530301045626,-0.001723793102428317,-9.826772689819336,0,0,29.349559783935547,1,1,1000,1000
1778788402.29953194,75484794,1,0.0011701765470206738,0.0002781493531074375,0.000642410246655345,0.0004317997954785824,-0.002341599902138114,-9.82650089263916,0,0,29.349559783935547,1,1,760,800
1778788402.33951592,75524778,0,0.0019109526183456182,0.000497914501465857,0.0006230552680790424,0.00013588917499873787,-0.0028820692095905542,-9.824813842773438,0,0,29.351648330688477,1,1,1000,1000
1778788402.33951592,75524778,1,0.0018433294026181102,0.0005427764845080674,0.0006682630046270788,0.0020062080584466457,-0.004714794456958771,-9.824947357177734,0,0,29.351648330688477,1,1,760,800
1778788402.37950015,75564762,0,0.0020170477218925953,0.0005305982194840908,0.0006328349700197577,0.00042305031092837453,-0.003106353571638465,-9.82546329498291,0,0,29.35373306274414,1,1,1000,1000
1778788402.37950015,75564762,1,0.0020353870932012796,0.00041953742038458586,0.0006838489789515734,0.0014600090216845274,-0.002395420568063855,-9.826630592346191,0,0,29.35373306274414,1,1,760,800
1778788402.41948414,75604746,0,0.001960202818736434,0.0006048604263924062,0.0006255743792280555,0.0009518726728856564,-0.0020909439772367477,-9.825085639953613,0,0,29.355819702148438,1,1,1000,1000
1778788402.41948414,75604746,1,0.0019215319771319628,0.000621784245595336,0.0006423547165468335,-0.0007150481687858701,-0.004759788978844881,-9.827276229858398,0,0,29.355819702148438,1,1,760,800
1778788402.45946813,75644730,0,0.0018523667240515351,0.0006557285669259727,0.0006487516802735627,0.0005663476185873151,-0.00253478717058897,-9.823917388916016,0,0,29.357906341552734,1,1,1000,1000
1778788402.45946813,75644730,1,0.0017589943017810583,0.0007142206304706633,0.0005205812631174922,0.0011536218225955963,-0.00466516800224781,-9.824827194213867,0,0,29.357906341552734,1,1,760,800
1778788402.49945211,75684714,0,0.0018126724753528833,0.0007246123277582228,0.0007016436429694295,0.0011751791462302208,-0.0037968866527080536,-9.823282241821289,0,0,29.3599910736084,1,1,1000,1000
1778788402.49945211,75684714,1,0.0018619968323037028,0.0007188916206359863,0.0006876384140923619,-0.00013439860776998103,-0.004739329218864441,-9.823404312133789,0,0,29.3599910736084,1,1,760,800
1778788402.53943610,75724698,0,0.0016913337167352438,0.004434489645063877,0.0006384510197676718,0.0009161648922599852,-0.005044971592724323,-9.824626922607422,0,0,29.362077713012695,1,1,1000,1000
1778788402.53943610,75724698,1,0.001596523099578917,0.004508256912231445,0.00054686248768121,-0.0014435566263273358,-0.004919776227325201,-9.825563430786133,0,0,29.362077713012695,1,1,760,800
1778788402.57942009,75764682,0,0.001592628308571875,0.0041085826233029366,0.0006612183642573655,-0.0006429666536860168,-0.0032026232220232487,-9.823659896850586,0,0,29.36416244506836,1,1,1000,1000
1778788402.57942009,75764682,1,0.0014501841505989432,0.003922466654330492,0.000506982090882957,-0.0008514007204212248,-0.0026702384930104017,-9.824000358581543,0,0,29.36416244506836,1,1,760,800
1778788402.61940408,75804666,0,0.0015573273412883282,0.003261703997850418,0.0005139530985616148,0.00026983884163200855,-0.002816668711602688,-9.832094192504883,0,0,29.36624526977539,1,1,1000,1000
1778788402.61940408,75804666,1,0.001621065428480506,0.0033557130955159664,0.0006577351014129817,-0.0005806115223094821,-0.002338759135454893,-9.831548690795898,0,0,29.36624526977539,1,1,760,800
1778788402.65938807,75844650,0,0.0014815488830208778,0.0018722760723903775,0.00018650580022949725,-0.00015629382687620819,-0.0033302647061645985,-9.831574440002441,0,0,29.368330001831055,1,1,1000,1000
1778788402.65938807,75844650,1,0.001329480786807835,0.001750428695231676,3.997654130216688e-05,0.0012378098908811808,-0.0015997063601389527,-9.832845687866211,0,0,29.368330001831055,1,1,760,800
1778788402.69937205,75884634,0,0.0014923613052815199,0.0015717388596385717,-7.7709490142297e-05,-0.0005292831338010728,-0.0032661696895956993,-9.828592300415039,0,0,29.37041473388672,1,1,1000,1000
1778788402.69937205,75884634,1,0.0015744635602459311,0.0017320087645202875,-0.0001650761696510017,-0.0007548484718427062,-0.004048392176628113,-9.82914924621582,0,0,29.37041473388672,1,1,760,800
1778788402.73935604,75924618,0,0.0013986327685415745,0.0007349819643422961,-0.00023926488938741386,9.191413118969649e-05,-0.0039075943641364574,-9.82840633392334,0,0,29.372499465942383,1,1,1000,1000
1778788402.73935604,75924618,1,0.0012869599740952253,0.0007974870968610048,-0.00020681353635154665,0.0008572782389819622,-0.0028040888719260693,-9.828190803527832,0,0,29.372499465942383,1,1,760,800
1778788402.77934003,75964602,0,0.0014064768329262733,0.0010683194268494844,-0.0004629393224604428,-0.0003451672091614455,-0.0031224312260746956,-9.828474998474121,0,0,29.374582290649414,1,1,1000,1000
1778788402.77934003,75964602,1,0.0013583663385361433,0.0009053702233359218,-0.0003477865247987211,0.001077051623724401,-0.004373455420136452,-9.82827091217041,0,0,29.374582290649414,1,1,760,800
1778788402.81932402,76004586,0,0.0013773899991065264,0.0015756564680486917,-0.000536984414793551,0.0009526762878522277,-0.0032203602604568005,-9.828580856323242,0,0,29.376665115356445,1,1,1000,1000
1778788402.81932402,76004586,1,0.0012601595371961594,0.0016380306333303452,-0.0004928017733618617,-0.002472541993483901,-0.0033129798248410225,-9.82999038696289,0,0,29.376665115356445,1,1,760,800
1778788402.85930800,76044570,0,0.0013445205986499786,0.0019519319757819176,-0.0006958646699786186,0.0006675135809928179,-0.0034278249368071556,-9.828047752380371,0,0,29.378747940063477,1,1,1000,1000
1778788402.85930800,76044570,1,0.0012845129240304232,0.0021749213337898254,-0.0006974765565246344,0.0002001236571231857,-0.004479679279029369,-9.829760551452637,0,0,29.378747940063477,1,1,760,800
1778788402.89929199,76084554,0,0.001283580088056624,0.001950739650055766,-0.0007689619087614119,-0.00043927779188379645,-0.0042218295857310295,-9.826569557189941,0,0,29.38083267211914,1,1,1000,1000
1778788402.89929199,76084554,1,0.0011566635221242905,0.0020026718266308308,-0.0007661335985176265,0.0013479667250066996,-0.0017653143731877208,-9.827417373657227,0,0,29.38083267211914,1,1,760,800
1778788402.93927598,76124538,0,0.0012377582024782896,-0.0001694830716587603,-0.0007496679900214076,0.0002486466837581247,-0.0039691925048828125,-9.822624206542969,0,0,29.38291358947754,1,1,1000,1000
1778788402.93927598,76124538,1,0.0014012095052748919,-0.00018314372573513538,-0.0009605524828657508,0.0051792580634355545,-0.004943343810737133,-9.820181846618652,0,0,29.38291358947754,1,1,760,800
1778788402.97925997,76164522,0,0.00021142649347893894,0.00014996642130427063,-0.00060327781829983,-0.000640540907625109,-0.0029765567742288113,-9.807947158813477,0,0,29.384994506835938,1,1,1000,1000
1778788402.97925997,76164522,1,0.00027385924477130175,2.8244676286703907e-06,-0.0008346293470822275,0.0021478014532476664,-0.00442614546045661,-9.806293487548828,0,0,29.384994506835938,1,1,760,800
1778788403.01924396,76204506,0,-0.0007848822278901935,0.00020159658743068576,-0.0007216075900942087,0.0018134426791220903,-0.00249074911698699,-9.71573257446289,0,0,29.38707733154297,1,1,1000,1000
1778788403.01924396,76204506,1,-0.0006135802250355482,0.000270332267973572,-0.0006838873378001153,-0.002748503815382719,-0.0063412608578801155,-9.715557098388672,0,0,29.38707733154297,1,1,760,800
1778788403.05922794,76244490,0,-0.00033674188307486475,0.0002834721526596695,-0.0007242150022648275,0.0017055339412763715,-0.0030660228803753853,-9.61106014251709,0,0,29.38916015625,1,1,1000,1000
1778788403.05922794,76244490,1,-0.0003903364995494485,0.0004861864144913852,-0.0007887269021011889,0.00024625787045806646,-0.004958145786076784,-9.612229347229004,0,0,29.38916015625,1,1,760,800
1778788403.09921193,76284474,0,-0.0006398847326636314,0.0003352679486852139,-0.0006954294512979686,0.0003071958781220019,-0.00472478661686182,-9.509787559509277,0,0,29.3912410736084,1,1,1000,1000
1778788403.09921193,76284474,1,-0.0007560094818472862,0.0003496711724437773,-0.0007177129737101495,-0.0011009108275175095,-0.003940487280488014,-9.508451461791992,0,0,29.3912410736084,1,1,760,800
1778788403.14002895,76325291,0,0.0005639002192765474,0.0004896714817732573,-0.0006773385684937239,0.000570746255107224,-0.003935473971068859,-9.417749404907227,0,0,29.393373489379883,1,1,1000,1000
1778788403.14002895,76325291,1,0.0006961433100514114,0.0006579908076673746,-0.0005516892415471375,0.0003544326755218208,-0.004467597231268883,-9.418050765991211,0,0,29.393321990966797,1,1,760,800
1778788403.18001294,76365275,0,-0.0005064746947027743,0.0003151502460241318,-0.000618871534243226,0.0009142072522081435,-0.003253996605053544,-9.33273696899414,0,0,29.39545440673828,1,1,1000,1000
1778788403.18001294,76365275,1,-0.0005144973983988166,0.00045058579416945577,-0.0005573612870648503,-0.0022091807331889868,-0.004207127261906862,-9.333995819091797,0,0,29.395402908325195,1,1,760,800
1778788403.21999693,76405259,0,-0.0006683962419629097,-0.00010558540088823065,-0.000566869683098048,0.0006616387981921434,-0.0027763862162828445,-9.256448745727539,0,0,29.39753532409668,1,1,1000,1000
1778788403.21999693,76405259,1,-0.00047461604117415845,6.788699101889506e-05,-0.0004954161122441292,-0.0008955028024502099,-0.004051622934639454,-9.25772476196289,0,0,29.397483825683594,1,1,760,800
1778788403.25998092,76445243,0,9.254153701476753e-05,0.00020907942962367088,-0.0005335783353075385,0.0009446849580854177,-0.0038292868994176388,-9.184553146362305,0,0,29.399616241455078,1,1,1000,1000
1778788403.25998092,76445243,1,0.0001406891387887299,0.00011556972458492965,-0.0005525484448298812,-0.0011059442767873406,-0.0012377566890791059,-9.18586540222168,0,0,29.39956283569336,1,1,760,800
1778788403.29996514,76485227,0,-0.00029896991327404976,-8.921712287701666e-05,-0.00044177117524668574,0.0013589831069111824,-0.0034564724192023277,-9.119804382324219,0,0,29.401643753051758,1,1,1000,1000
1778788403.29996514,76485227,1,-0.00039973872480913997,-0.00018295072368346155,-0.0005134704406373203,0.0003081687609665096,-0.0032714323606342077,-9.120217323303223,0,0,29.401643753051758,1,1,760,800
1778788403.33994913,76525211,0,-0.0009525167988613248,3.0838426027912647e-05,-0.00028733216458931565,0.00023456080816686153,-0.003939206246286631,-9.064563751220703,0,0,29.403722763061523,1,1,1000,1000
1778788403.33994913,76525211,1,-0.0008077393285930157,-8.060694381128997e-05,-0.0003046350902877748,0.0002447664737701416,-0.00312826014123857,-9.06334400177002,0,0,29.403722763061523,1,1,760,800
1778788403.37993312,76565195,0,-0.0006310117896646261,0.00016368708747904748,-0.00033956009428948164,0.0010087783448398113,-0.003621509298682213,-9.014240264892578,0,0,29.40580177307129,1,1,1000,1000
1778788403.37993312,76565195,1,-0.0005214131670072675,0.00024361223040614277,-0.00015731019084341824,0.003339634044095874,-0.002304821042343974,-9.01378059387207,0,0,29.40580177307129,1,1,760,800
1778788403.41991711,76605179,0,0.0001082697999663651,0.0008276255102828145,-0.0002676179865375161,0.0022171144373714924,-0.0036112938541918993,-8.966245651245117,0,0,29.407882690429688,1,1,1000,1000
1778788403.41991711,76605179,1,0.00013469847908709198,0.0008822236559353769,-0.00013503992522601038,0.002816329011693597,-0.004150166176259518,-8.965633392333984,0,0,29.407882690429688,1,1,760,800
1778788403.45990109,76645163,0,-0.0001807879307307303,0.000310933159198612,-0.0003172357100993395,1.9725612219190225e-05,-0.004159118514508009,-8.924947738647461,0,0,29.40995979309082,1,1,1000,1000
1778788403.45990109,76645163,1,-0.00015884646563790739,0.000126641767565161,-0.0001880890631582588,0.00271560437977314,-0.004181449767202139,-8.920534133911133,0,0,29.40995979309082,1,1,760,800
1778788403.49988508,76685147,0,-0.001385118579491973,-0.0005426299758255482,-8.911072654882446e-05,0.0007049733540043235,-0.0030565238557755947,-8.892584800720215,0,0,29.412038803100586,1,1,1000,1000
1778788403.49988508,76685147,1,-0.0013580543454736471,-0.0004577494692057371,-6.545081760123139e-06,0.0014359228080138564,-0.004306321032345295,-8.895350456237793,0,0,29.412038803100586,1,1,760,800
1778788403.53986907,76725131,0,-0.0017053295159712434,-0.00018403903231956065,-4.260544665157795e-05,0.0005486675072461367,-0.0026756655424833298,-8.858266830444336,0,0,29.41411590576172,1,1,1000,1000
1778788403.53986907,76725131,1,-0.001721062115393579,-0.000312506832415238,-6.653933087363839e-05,-0.0019317453261464834,-0.003006148850545287,-8.860475540161133,0,0,29.41411590576172,1,1,760,800
1778788403.57985306,76765115,0,0.001560667180456221,0.002333288313820958,-2.1858497348148376e-05,0.0015611158451065421,-0.004876894876360893,-8.83084487915039,0,0,29.416194915771484,1,1,1000,1000
1778788403.57985306,76765115,1,0.0015716423513367772,0.0021875291131436825,-5.370470535126515e-05,0.0004714427632279694,-0.0024738782085478306,-8.833152770996094,0,0,29.416194915771484,1,1,760,800
1778788403.61983705,76805099,0,-0.0019786071497946978,-0.0011602791491895914,-3.20081744575873e-05,0.0009174090228043497,-0.003260479774326086,-8.811391830444336,0,0,29.41827392578125,1,1,1000,1000
1778788403.61983705,76805099,1,-0.0019424068741500378,-0.0011132049839943647,-0.00022424457711167634,0.002273392165079713,-0.003225146559998393,-8.81164264678955,0,0,29.41827392578125,1,1,760,800
1778788403.65982103,76845083,0,-0.000843225687276572,0.0009600737830623984,-4.323149914853275e-05,0.0008910903707146645,-0.004704301245510578,-8.79053783416748,0,0,29.42034912109375,1,1,1000,1000
1778788403.65982103,76845083,1,-0.0009551603579893708,0.0009659285424277186,-8.371805597562343e-05,0.00033013138454407454,-0.0026039560325443745,-8.790070533752441,0,0,29.42034912109375,1,1,760,800
1778788403.69980502,76885067,0,-0.0011473802151158452,0.0007427562959492207,0.00017834761820267886,0.0009225897956639528,-0.003937937319278717,-8.777275085449219,0,0,29.422426223754883,1,1,1000,1000
1778788403.69980502,76885067,1,-0.0012937611900269985,0.0008175299735739827,0.00014894729247316718,0.0025755243841558695,-0.0026391404680907726,-8.778138160705566,0,0,29.422426223754883,1,1,760,800
1778788403.73978901,76925051,0,-0.0006768298335373402,0.00037656695349141955,0.00011133020598208532,0.0010091991862282157,-0.0038417810574173927,-8.766851425170898,0,0,29.4245548248291,1,1,1000,1000
1778788403.73978901,76925051,1,-0.0008672670228406787,0.00023031632008496672,0.0001444376539438963,0.002209637314081192,-0.0033909103367477655,-8.768754959106445,0,0,29.4245548248291,1,1,760,800
1778788403.77977300,76965035,0,-0.0006302581750787795,0.0021045361645519733,0.0001628444588277489,0.0008614343823865056,-0.0032785343937575817,-8.753496170043945,0,0,29.426631927490234,1,1,1000,1000
1778788403.77977300,76965035,1,-0.0007995347259566188,0.0022100373171269894,0.00017175644461531192,-0.0005115793319419026,-0.006824353709816933,-8.75405502319336,0,0,29.426631927490234,1,1,760,800
1778788403.81975698,77005019,0,0.0007769288495182991,-0.00105054653249681,0.00023487114231102169,0.0007072751177474856,-0.0029362894129008055,-8.74657154083252,0,0,29.428709030151367,1,1,1000,1000
1778788403.81975698,77005019,1,0.0008625355549156666,-0.0011405322002246976,0.0001187138186651282,-0.0009616409661248326,-0.0030903187580406666,-8.748862266540527,0,0,29.428709030151367,1,1,760,800
1778788403.85974097,77045003,0,-0.0010450303088873625,0.001945017953403294,0.00026338209863752127,0.0020594485104084015,-0.0030601276084780693,-8.732391357421875,0,0,29.4307861328125,1,1,1000,1000
1778788403.85974097,77045003,1,-0.000801816931925714,0.0020486891735345125,0.00026052852626889944,0.0004759509756695479,-0.0027376669459044933,-8.731833457946777,0,0,29.4307861328125,1,1,760,800
1778788403.89972496,77084987,0,-0.0015055525582283735,0.0004125694977119565,0.00024308159481734037,0.0014288792153820395,-0.005008826032280922,-8.724784851074219,0,0,29.43280792236328,1,1,1000,1000
1778788403.89972496,77084987,1,-0.0015055015683174133,0.00029016248299740255,0.0004977461067028344,-0.00040176184847950935,-0.0041806697845458984,-8.724909782409668,0,0,29.43280792236328,1,1,760,800
1778788403.93970895,77124971,0,-0.0012533924309536815,3.580095653887838e-05,0.0003325098950881511,0.001955804880708456,-0.00352440495043993,-8.73725700378418,0,0,29.43488311767578,1,1,1000,1000
1778788403.93970895,77124971,1,-0.0012835862580686808,-3.1264396966435015e-05,0.0001999571395572275,0.0002497722744010389,-0.003679783083498478,-8.735392570495605,0,0,29.43488311767578,1,1,760,800
1778788403.97969294,77164955,0,0.0015261786757037044,-0.0016198066296055913,0.0002052850613836199,0.0006938027800060809,-0.003465805435553193,-8.723438262939453,0,0,29.43695831298828,1,1,1000,1000
1778788403.97969294,77164955,1,0.0016489169793203473,-0.001687404583208263,0.00034585781395435333,0.0013931004796177149,-0.0023968960158526897,-8.722980499267578,0,0,29.43695831298828,1,1,760,800
1778788404.01967692,77204939,0,0.00047102864482440054,-0.0008195503614842892,0.0002378451026743278,-0.00034819968277588487,-0.0029203793965280056,-8.732409477233887,0,0,29.43903350830078,1,1,1000,1000
1778788404.01967692,77204939,1,0.00038955616764724255,-0.0007268310291692615,0.00028869035304524004,0.001254917704500258,-0.000721263641025871,-8.732275009155273,0,0,29.43903350830078,1,1,760,800
1778788404.05966115,77244923,0,-0.001201448729261756,-0.0003141407505609095,9.445414616493508e-05,0.000659127370454371,-0.003457663580775261,-8.725700378417969,0,0,29.44110870361328,1,1,1000,1000
1778788404.05966115,77244923,1,-0.001162250409834087,-0.0003920958552043885,0.00013393517292570323,-0.0005985306925140321,-0.003299321513622999,-8.727045059204102,0,0,29.44110870361328,1,1,760,800
1778788404.09964514,77284907,0,-0.0004186376463621855,-0.00027279637288302183,0.00022080697817727923,0.001254158210940659,-0.003467163536697626,-8.738685607910156,0,0,29.44318389892578,1,1,1000,1000
1778788404.09964514,77284907,1,-0.0002304176305187866,-0.00040044309571385384,0.0004523632233031094,0.001137563376687467,-0.0032722644973546267,-8.73658561706543,0,0,29.44318389892578,1,1,760,800
1778788404.13962913,77324891,0,-0.000872352160513401,-3.455736077739857e-05,0.00010766417835839093,4.8190900997724384e-05,-0.0026358752511441708,-8.727783203125,0,0,29.44525718688965,1,1,1000,1000
1778788404.13962913,77324891,1,-0.0007343335309997201,0.00012890787911601365,0.00033952173544093966,0.0011431567836552858,-0.004126485902816057,-8.727112770080566,0,0,29.44525718688965,1,1,760,800
1778788404.17961311,77364875,0,-0.000676797004416585,-0.0001496484619565308,0.0002094311494147405,0.0015456666005775332,-0.0032890639267861843,-8.744272232055664,0,0,29.447330474853516,1,1,1000,1000
1778788404.17961311,77364875,1,-0.0006529849488288164,-0.0002454748610034585,0.00037713441997766495,-0.0005203476757742465,-0.003808732144534588,-8.743552207946777,0,0,29.447330474853516,1,1,760,800
1778788404.21959710,77404859,0,3.195015960955061e-05,0.0018352937186136842,9.907846106216311e-05,0.000553279765881598,-0.00394811388105154,-8.736518859863281,0,0,29.449405670166016,1,1,1000,1000
1778788404.21959710,77404859,1,-3.149311669403687e-05,0.0019315648823976517,2.6893550966633484e-05,-0.00014935526996850967,-0.0011016676435247064,-8.735522270202637,0,0,29.449405670166016,1,1,760,800
1778788404.25958109,77444843,0,-0.0004299856664147228,-0.00011730472760973498,0.00018247340631205589,0.0006185199599713087,-0.0020813033916056156,-8.744547843933105,0,0,29.45147705078125,1,1,1000,1000
1778788404.25958109,77444843,1,-0.0006134113646112382,-0.00014707157970406115,0.00028724566800519824,6.621285137953237e-07,-0.0031150570139288902,-8.74327278137207,0,0,29.45147705078125,1,1,760,800
1778788404.29956508,77484827,0,-0.000279303640127182,0.00012213260924909264,0.0001909327256726101,1.8220704077975824e-05,-0.0023641795851290226,-8.760476112365723,0,0,29.453550338745117,1,1,1000,1000
1778788404.29956508,77484827,1,-0.000413342408137396,0.00018552463734522462,9.678461356088519e-05,0.0016315740067511797,-0.0017398453783243895,-8.760557174682617,0,0,29.453550338745117,1,1,760,800
1778788404.33954906,77524811,0,0.00042688180110417306,0.0015697209164500237,0.0002042545092990622,0.00030557220452465117,-0.0028930141124874353,-8.753622055053711,0,0,29.455623626708984,1,1,1000,1000
1778788404.33954906,77524811,1,0.0005541133577935398,0.001682576723396778,0.0002622561587486416,0.001969113014638424,-0.0023225536569952965,-8.754575729370117,0,0,29.455623626708984,1,1,760,800
1778788404.37953305,77564795,0,-0.00015955025446601212,0.0028625880368053913,0.00010719766578404233,0.0014952389756217599,-0.0020407428964972496,-8.75888442993164,0,0,29.45769500732422,1,1,1000,1000
1778788404.37953305,77564795,1,-8.091504423646256e-05,0.002756197704002261,0.00024764236877672374,0.000530657300259918,-0.0033631629776209593,-8.758098602294922,0,0,29.45769500732422,1,1,760,800
1778788404.41951704,77604779,0,-5.440610402729362e-05,0.0026229284703731537,0.00024813582422211766,0.0014850511215627193,-0.0028518117032945156,-8.774284362792969,0,0,29.459766387939453,1,1,1000,1000
1778788404.41951704,77604779,1,-5.190318188397214e-05,0.002800687914714217,7.736854604445398e-05,-0.0010930837597697973,-0.0020304699428379536,-8.773481369018555,0,0,29.459766387939453,1,1,760,800
1778788404.45950103,77644763,0,0.0019072511931881309,0.0011604622704908252,0.00010560345253907144,0.00122260139323771,-0.0018120305612683296,-8.771066665649414,0,0,29.461841583251953,1,1,1000,1000
1778788404.45950103,77644763,1,0.0018583206692710519,0.0012839155970141292,1.998863444896415e-05,0.002470785053446889,-0.0015719910152256489,-8.7723970413208,0,0,29.461841583251953,1,1,760,800
1778788404.49948502,77684747,0,0.0017624376341700554,0.0034269553143531084,0.00025927546084858477,0.0004407908418215811,-0.0017515146173536777,-8.770679473876953,0,0,29.463912963867188,1,1,1000,1000
1778788404.49948502,77684747,1,0.001789376954548061,0.0034897972363978624,0.00021191425912547857,-0.0005329081322997808,-0.0014218559954315424,-8.772035598754883,0,0,29.463912963867188,1,1,760,800
1778788404.53946900,77724731,0,0.0017052276525646448,0.003146357834339142,0.00026901348610408604,0.0004008814285043627,-0.002356436103582382,-8.786139488220215,0,0,29.46598243713379,1,1,1000,1000
1778788404.53946900,77724731,1,0.0016094886232167482,0.0031914319843053818,0.00010083403321914375,0.0009749087039381266,-0.002835210645571351,-8.78420639038086,0,0,29.46598243713379,1,1,760,800
1778788404.57945299,77764715,0,0.0017083573620766401,0.002915080403909087,0.00031143613159656525,0.0009221300715580583,-0.0009779034880921245,-8.798357009887695,0,0,29.468055725097656,1,1,1000,1000
1778788404.57945299,77764715,1,0.0017480081878602505,0.0031888922676444054,0.0002793565217871219,0.0020635523833334446,-0.0019935339223593473,-8.800458908081055,0,0,29.468055725097656,1,1,760,800
1778788404.61943698,77804699,0,0.001943456707522273,0.0018378712702542543,0.0002483840216882527,0.0008944314322434366,-0.000680831610225141,-8.789642333984375,0,0,29.470125198364258,1,1,1000,1000
1778788404.61943698,77804699,1,0.0018836096860468388,0.001931606326252222,0.00016598320507910103,-0.0008060077088885009,-0.004154419060796499,-8.789392471313477,0,0,29.470125198364258,1,1,760,800
1778788404.65942097,77844683,0,0.0005742383073084056,0.0001248280459549278,0.00021816350636072457,0.0005220720777288079,-0.0023131307680159807,-8.795024871826172,0,0,29.47219467163086,1,1,1000,1000
1778788404.65942097,77844683,1,0.0007157438085414469,0.00033201021142303944,8.751435234444216e-05,9.153656719718128e-06,-0.0006529386155307293,-8.794586181640625,0,0,29.47219467163086,1,1,760,800
1778788404.69940495,77884667,0,0.0007351356325671077,0.00012655054160859436,0.00026450055884197354,0.0011434772750362754,-0.001712725032120943,-8.807798385620117,0,0,29.474266052246094,1,1,1000,1000
1778788404.69940495,77884667,1,0.000634131720289588,0.00012523020268417895,0.00017094142094720155,0.000339042249834165,-0.0021020243875682354,-8.809691429138184,0,0,29.474266052246094,1,1,760,800
1778788404.73938894,77924651,0,0.0006593262078240514,0.00031311303609982133,0.00024307148123625666,0.0008446328574791551,6.692334136459976e-05,-8.811674118041992,0,0,29.476335525512695,1,1,1000,1000
1778788404.73938894,77924651,1,0.0006707107531838119,0.0003447622002568096,0.00028120740898884833,0.0012685653055086732,0.0018172787968069315,-8.811448097229004,0,0,29.476335525512695,1,1,760,800
1778788404.77937293,77964635,0,0.003535200608894229,-0.0003605200909078121,0.00011342457582941279,0.0010455814190208912,-0.0006386960158124566,-8.80770206451416,0,0,29.478404998779297,1,1,1000,1000
1778788404.77937293,77964635,1,0.003469384741038084,-0.00022716211969964206,0.00014814866881351918,-0.0015624822117388248,-0.002267962321639061,-8.80616569519043,0,0,29.478404998779297,1,1,760,800
1778788404.81935692,78004619,0,0.003166588954627514,0.0030326470732688904,0.00010136314813280478,0.00020050155580975115,-0.0010825665667653084,-8.812885284423828,0,0,29.48047637939453,1,1,1000,1000
1778788404.81935692,78004619,1,0.003100859932601452,0.0031180318910628557,0.00025271851336583495,0.0016455816803500056,0.0016862968914210796,-8.813933372497559,0,0,29.48047637939453,1,1,760,800
1778788404.85934114,78044603,0,0.0030063465237617493,0.00274527701549232,0.00018736008496489376,0.0008850449230521917,-0.0010179239325225353,-8.826629638671875,0,0,29.4825439453125,1,1,1000,1000
