timestamp,TimeUS,I,GyrX,GyrY,GyrZ,AccX,AccY,AccZ,EG,EA,T,GH,AH,GHz,AHz
1778782973.10003996,52284078,0,0.0007465238450095057,0.0007412591949105263,0.0007434969884343445,-0.0004757160204462707,-0.0002645292552188039,-9.817083358764648,0,0,28.091176986694336,1,1,1000,1000
1778782973.10003996,52284078,1,0.0007235832163132727,0.0005674272542819381,0.0008347940747626126,-0.001966399373486638,-0.001327480305917561,-9.815445899963379,0,0,28.091176986694336,1,1,760,800
1778782973.14002419,52324062,0,0.0006963924970477819,0.0007593203336000443,0.0007636831142008305,-6.0803682572441176e-05,-0.0006978246383368969,-9.817998886108398,0,0,28.093486785888672,1,1,1000,1000
1778782973.14002419,52324062,1,0.0006729742744937539,0.0006782460841350257,0.0007450208067893982,0.0003427665214985609,-0.0008938979590311646,-9.815789222717285,0,0,28.09343147277832,1,1,760,800
1778782973.18000817,52364046,0,0.0006951491814106703,0.0006693127797916532,0.0007518978090956807,-0.0019835052080452442,-0.0008511206833645701,-9.81734848022461,0,0,28.095741271972656,1,1,1000,1000
1778782973.18000817,52364046,1,0.0006282155518420041,0.0006060446612536907,0.000763250864110887,-4.8985697503667325e-05,-0.0027864095754921436,-9.817038536071777,0,0,28.095685958862305,1,1,760,800
1778782973.21999216,52404030,0,0.0007388160447590053,0.0007528847199864686,0.0008112493669614196,-0.00017306467634625733,-0.000609319657087326,-9.81736946105957,0,0,28.097993850708008,1,1,1000,1000
1778782973.21999216,52404030,1,0.0006065889610908926,0.0006552988779731095,0.0005643059266731143,-0.0007032755529507995,-0.0018305890262126923,-9.81659984588623,0,0,28.097938537597656,1,1,760,800
1778782973.26080918,52444847,0,0.0007354685221798718,0.0007922094082459807,0.0006220255745574832,-0.0005183048779144883,-0.000720244541298598,-9.818108558654785,0,0,28.100248336791992,1,1,1000,1000
1778782973.26080918,52444847,1,0.0007041596109047532,0.0006599382613785565,0.000755503133405,-0.0017170975916087627,-0.0022612542379647493,-9.814448356628418,0,0,28.100248336791992,1,1,760,800
1778782973.30079317,52484831,0,0.0006747443694621325,0.0007462046341970563,0.0008033996564336121,-0.0005878584343008697,-0.0012123225023970008,-9.817170143127441,0,0,28.102500915527344,1,1,1000,1000
1778782973.30079317,52484831,1,0.0006735608330927789,0.0005242623738013208,0.0008959576953202486,-0.0022118466440588236,-0.0013930684654042125,-9.81795597076416,0,0,28.102500915527344,1,1,760,800
1778782973.34077716,52524815,0,0.0007750287186354399,0.0007080374052748084,0.0007411651313304901,-0.001024720724672079,-0.0003005180915351957,-9.818476676940918,0,0,28.104753494262695,1,1,1000,1000
1778782973.34077716,52524815,1,0.001089128665626049,0.0005214473931118846,0.000720512995030731,-0.0018433518707752228,-0.003961862064898014,-9.81652545928955,0,0,28.104753494262695,1,1,760,800
1778782973.38076115,52564799,0,0.000696518924087286,0.0006978996680118144,0.00073479168349877,0.00020529246830847114,-0.0006676716147921979,-9.81851863861084,0,0,28.107006072998047,1,1,1000,1000
1778782973.38076115,52564799,1,0.0005106352036818862,0.000718721654266119,0.0009520965395495296,0.00048118698759935796,-0.001141717890277505,-9.815584182739258,0,0,28.107006072998047,1,1,760,800
1778782973.42074513,52604783,0,0.0007667054887861013,0.0007557753124274313,0.000810116995126009,-0.0005182045279070735,-0.0010218344395980239,-9.816067695617676,0,0,28.10926055908203,1,1,1000,1000
1778782973.42074513,52604783,1,0.0006251197773963213,0.0009214971214532852,0.0005866338615305722,-0.0015002160798758268,-0.0029401688370853662,-9.816922187805176,0,0,28.10926055908203,1,1,760,800
1778782973.46072912,52644767,0,0.0007445719675160944,0.0006692082388326526,0.0007255672826431692,-0.0012510111555457115,-0.0014020742382854223,-9.817830085754395,0,0,28.11151123046875,1,1,1000,1000
1778782973.46072912,52644767,1,0.0009131667320616543,0.000645386753603816,0.001084016403183341,-0.001895702676847577,-0.00022487454407382756,-9.815414428710938,0,0,28.11151123046875,1,1,760,800
1778782973.50071311,52684751,0,0.0007548381108790636,0.0008145965402945876,0.0007945000543259084,-0.0006697273347526789,-0.0011819161009043455,-9.817950248718262,0,0,28.1137638092041,1,1,1000,1000
1778782973.50071311,52684751,1,0.0008152302470989525,0.0005120090791024268,0.0008129237103275955,0.0004825844953302294,-0.0011439602822065353,-9.818155288696289,0,0,28.1137638092041,1,1,760,800
1778782973.54069710,52724735,0,0.000713587214704603,0.0007855999283492565,0.0006456365808844566,-0.0009698016801849008,-0.000800195848569274,-9.817928314208984,0,0,28.11601448059082,1,1,1000,1000
1778782973.54069710,52724735,1,0.0006383256986737251,0.0005506145535036922,0.0004355663259048015,-0.0002829702862072736,-0.0005754365702159703,-9.817679405212402,0,0,28.11601448059082,1,1,760,800
1778782973.58068109,52764719,0,0.0007011370616964996,0.0007563335238955915,0.0007851714035496116,-0.0006091430550441146,-0.0003626645775511861,-9.81878662109375,0,0,28.11826515197754,1,1,1000,1000
1778782973.58068109,52764719,1,0.0006338681560009718,0.0006826521130278707,0.0007860977202653885,-0.0008394685573875904,0.0007781541207805276,-9.817957878112793,0,0,28.11826515197754,1,1,760,800
1778782973.62066507,52804703,0,0.0007457840838469565,0.0007099686190485954,0.0008249541861005127,-0.001250112080015242,-0.0008960177656263113,-9.816513061523438,0,0,28.120515823364258,1,1,1000,1000
1778782973.62066507,52804703,1,0.000608153990469873,0.0008935360820032656,0.0008834641776047647,-0.004858559463173151,-0.004101294558495283,-9.818674087524414,0,0,28.120515823364258,1,1,760,800
1778782973.66064906,52844687,0,0.0007026743260212243,0.0007445980445481837,0.0007410897524096072,-0.00046601489884778857,-0.0005950636113993824,-9.817463874816895,0,0,28.122766494750977,1,1,1000,1000
1778782973.66064906,52844687,1,0.0008126805769279599,0.0005809087306261063,0.0006849060882814229,-0.002392952796071768,-0.0007273720111697912,-9.816217422485352,0,0,28.122766494750977,1,1,760,800
1778782973.70063305,52884671,0,0.0007599900709465146,0.0006592004210688174,0.0007698279805481434,-0.0008680149912834167,-0.00011474556959001347,-9.816381454467773,0,0,28.125017166137695,1,1,1000,1000
1778782973.70063305,52884671,1,0.0008748180698603392,0.0006537439185194671,0.0003770539187826216,-0.000864832429215312,-0.0017034336924552917,-9.816675186157227,0,0,28.125017166137695,1,1,760,800
1778782973.74061704,52924655,0,0.0007738266140222549,0.0006869906792417169,0.000767681747674942,-0.0013958616182208061,-0.0010073259472846985,-9.817355155944824,0,0,28.12726593017578,1,1,1000,1000
1778782973.74061704,52924655,1,0.0006693671457469463,0.0007348632789216936,0.0009440249996259809,-0.0017613254021853209,-0.0017507820157334208,-9.817033767700195,0,0,28.12726593017578,1,1,760,800
1778782973.78060102,52964639,0,0.0007291859947144985,0.0007670874474570155,0.0007852865383028984,-0.0011332904687151313,-0.000837997009512037,-9.81849193572998,0,0,28.1295166015625,1,1,1000,1000
1778782973.78060102,52964639,1,0.0008019297965802252,0.00043500852189026773,0.0006233570748008788,-0.0022028193343430758,-0.001003581564873457,-9.8175048828125,0,0,28.1295166015625,1,1,760,800
1778782973.82058501,53004623,0,0.0006833192892372608,0.0007496363250538707,0.0007706651231274009,-0.0018022488802671432,-0.0005696701700799167,-9.816550254821777,0,0,28.131765365600586,1,1,1000,1000
1778782973.82058501,53004623,1,0.000725232413969934,0.0008527984609827399,0.0007854985306039453,-0.0007135822670534253,0.0007414012216031551,-9.81663703918457,0,0,28.131765365600586,1,1,760,800
1778782973.86056900,53044607,0,0.0007825220236554742,0.0006759053794667125,0.0007563316612504423,-0.0023081302642822266,-0.0003917463473044336,-9.817139625549316,0,0,28.134014129638672,1,1,1000,1000
1778782973.86056900,53044607,1,0.0006483112229034305,0.0007311187218874693,0.000689044245518744,-0.0009143626084551215,-0.0007875493029132485,-9.817975997924805,0,0,28.134014129638672,1,1,760,800
1778782973.90055299,53084591,0,0.0007201689295470715,0.0007257364341057837,0.0007772126118652523,-0.001374045736156404,-0.0012220811331644654,-9.815970420837402,0,0,28.136262893676758,1,1,1000,1000
1778782973.90055299,53084591,1,0.0011057914234697819,0.0006184631492942572,0.0008579632267355919,0.0007845353684388101,-0.0010964875109493732,-9.819304466247559,0,0,28.136262893676758,1,1,760,800
1778782973.94053698,53124575,0,0.000728461192920804,0.000779294699896127,0.0007340191514231265,-0.002221124479547143,-0.0007003695936873555,-9.81744384765625,0,0,28.138511657714844,1,1,1000,1000
1778782973.94053698,53124575,1,0.0005195693811401725,0.0010566681157797575,0.0006922741886228323,-0.0014136823592707515,-0.0015529021620750427,-9.817401885986328,0,0,28.138511657714844,1,1,760,800
1778782973.98052096,53164559,0,0.0007546519045718014,0.000812783429864794,0.0007300094002857804,-0.0008347760885953903,-0.0013839458115398884,-9.817523956298828,0,0,28.140758514404297,1,1,1000,1000
1778782973.98052096,53164559,1,0.0006949104135856032,0.0008776950417086482,0.0008801651420071721,0.0013087517581880093,-0.002047239802777767,-9.816268920898438,0,0,28.140758514404297,1,1,760,800
1778782974.02050519,53204543,0,0.0007310535293072462,0.0007342809694819152,0.0007096697809174657,-0.0011572565417736769,-0.002402053214609623,-9.817159652709961,0,0,28.143007278442383,1,1,1000,1000
1778782974.02050519,53204543,1,0.0006920632440596819,0.0008198482682928443,0.0007188485469669104,-0.0012635138118639588,0.0006302014808170497,-9.815528869628906,0,0,28.143007278442383,1,1,760,800
1778782974.06048918,53244527,0,0.0007580468663945794,0.000746432866435498,0.0007346982602030039,-0.0007992454338818789,-0.0015799608081579208,-9.816733360290527,0,0,28.145254135131836,1,1,1000,1000
1778782974.06048918,53244527,1,0.0006806256715208292,0.0005906812730245292,0.000742506526876241,-0.0006113083218224347,-0.0030880237463861704,-9.818034172058105,0,0,28.145254135131836,1,1,760,800
1778782974.10047317,53284511,0,0.0007715761312283576,0.0006426817853935063,0.0007733566453680396,-0.0007084825774654746,-0.0012074942933395505,-9.817736625671387,0,0,28.147502899169922,1,1,1000,1000
1778782974.10047317,53284511,1,0.00083778181578964,0.0009850186761468649,0.000722045311704278,-0.003406633622944355,0.0003452930541243404,-9.816866874694824,0,0,28.147502899169922,1,1,760,800
1778782974.14045715,53324495,0,0.0007625016150996089,0.0007023849757388234,0.0007263325969688594,-0.0006297749932855368,-0.0013051633723080158,-9.817586898803711,0,0,28.149747848510742,1,1,1000,1000
1778782974.14045715,53324495,1,0.0007039785850793123,0.0009338022209703922,0.0007370507810264826,-0.002744570141658187,-0.0011599701829254627,-9.820484161376953,0,0,28.149747848510742,1,1,760,800
1778782974.18044114,53364479,0,0.0008259342284873128,0.0007658650283701718,0.0006667716661468148,0.00019755536050070077,-0.000933646282646805,-9.817177772521973,0,0,28.151994705200195,1,1,1000,1000
1778782974.18044114,53364479,1,0.0010029717814177275,0.0007138494402170181,0.0006753537454642355,-0.0027119324076920748,-0.0003876586852129549,-9.8190279006958,0,0,28.151994705200195,1,1,760,800
1778782974.22042513,53404463,0,0.0007286082836799324,0.0007146447896957397,0.0007128191646188498,-0.0003131621051579714,-0.0004928999114781618,-9.817394256591797,0,0,28.15424156188965,1,1,1000,1000
1778782974.22042513,53404463,1,0.0008342181681655347,0.0006369733600877225,0.0007153261103667319,-0.00021833741629961878,-0.00044348076335154474,-9.814775466918945,0,0,28.15424156188965,1,1,760,800
1778782974.26040912,53444447,0,0.0007478574989363551,0.0007680440321564674,0.0007055587484501302,-0.0017478354275226593,-0.000726599246263504,-9.818024635314941,0,0,28.15648651123047,1,1,1000,1000
1778782974.26040912,53444447,1,0.0008719945326447487,0.0006528526428155601,0.0005421790992841125,-0.0029787428211420774,-0.0028669005259871483,-9.816062927246094,0,0,28.15648651123047,1,1,760,800
1778782974.30039310,53484431,0,0.0008110016351565719,0.0007803033804520965,0.0007105325348675251,-0.0013640131801366806,-8.742372301639989e-05,-9.817647933959961,0,0,28.158733367919922,1,1,1000,1000
1778782974.30039310,53484431,1,0.0007542774546891451,0.0006073997355997562,0.0006282060639932752,-0.000494251842610538,-5.294840957503766e-05,-9.814739227294922,0,0,28.158733367919922,1,1,760,800
1778782974.34037709,53524415,0,0.0007291913498193026,0.0007399690221063793,0.0007556078489869833,-0.001614804146811366,-0.0006240044604055583,-9.817914009094238,0,0,28.16097640991211,1,1,1000,1000
1778782974.34037709,53524415,1,0.0007985024712979794,0.0009029927314259112,0.0007948743877932429,-0.0026207438204437494,0.0003034400288015604,-9.8172025680542,0,0,28.16097640991211,1,1,760,800
1778782974.38036108,53564399,0,0.0007313583046197891,0.0007382891490124166,0.0007662827265448868,-0.0006406079046428204,-0.0009319750242866576,-9.817164421081543,0,0,28.163223266601562,1,1,1000,1000
1778782974.38036108,53564399,1,0.0009481864399276674,0.0008233757107518613,0.0008327629184350371,-0.00022791483206674457,-0.0010976220946758986,-9.818553924560547,0,0,28.163223266601562,1,1,760,800
1778782974.42034507,53604383,0,0.0007950944709591568,0.0007397244917228818,0.0007772069657221437,-0.0010918161133304238,-0.0014018664369359612,-9.817241668701172,0,0,28.165468215942383,1,1,1000,1000
1778782974.42034507,53604383,1,0.0006959510501474142,0.0007550730369985104,0.0008999792626127601,-0.0023673109244555235,-0.0001347098732367158,-9.815601348876953,0,0,28.165468215942383,1,1,760,800
1778782974.46032906,53644367,0,0.0007309331558644772,0.0008046794682741165,0.0008110628696158528,-0.002144159749150276,-0.0016163805266842246,-9.816681861877441,0,0,28.167713165283203,1,1,1000,1000
1778782974.46032906,53644367,1,0.0006706962594762444,0.000970203778706491,0.0008073631906881928,0.00047295173862949014,-0.0009275504271499813,-9.81859016418457,0,0,28.167713165283203,1,1,760,800
1778782974.50031304,53684351,0,0.0006906555499881506,0.0007427876116707921,0.0008109366754069924,-0.00028307465254329145,-0.00146633165422827,-9.817510604858398,0,0,28.16995620727539,1,1,1000,1000
1778782974.50031304,53684351,1,0.0005172340897843242,0.0005729352706111968,0.0007799287559464574,-0.00030390825122594833,-1.7264756024815142e-05,-9.81736946105957,0,0,28.16995620727539,1,1,760,800
1778782974.54029703,53724335,0,0.0007589449523948133,0.0007606521248817444,0.0007324367761611938,-0.0013006218941882253,-0.0012768511660397053,-9.816977500915527,0,0,28.172199249267578,1,1,1000,1000
1778782974.54029703,53724335,1,0.0005564235616475344,0.0007454559672623873,0.0007627619779668748,-0.0018932929961010814,-0.0005049979663453996,-9.815479278564453,0,0,28.172199249267578,1,1,760,800
1778782974.58028102,53764319,0,0.000841719564050436,0.0007590973982587457,0.0007413047133013606,-0.0016248924657702446,-0.0011300303740426898,-9.816763877868652,0,0,28.174442291259766,1,1,1000,1000
1778782974.58028102,53764319,1,0.0007163650589063764,0.0009062821627594531,0.0008278574096038938,6.252034654607996e-05,-0.0010156037751585245,-9.816221237182617,0,0,28.174442291259766,1,1,760,800
1778782974.62026501,53804303,0,0.0007804989581927657,0.0006740030366927385,0.0006697915960103273,-0.001972821308299899,-0.001203390653245151,-9.81818675994873,0,0,28.176687240600586,1,1,1000,1000
1778782974.62026501,53804303,1,0.0009015133255161345,0.000664456223603338,0.0005556227406486869,-0.0012823883444070816,-0.00019914095173589885,-9.820545196533203,0,0,28.176687240600586,1,1,760,800
1778782974.66024899,53844287,0,0.0007099301437847316,0.0007325579645112157,0.0006428086198866367,-0.0003488771035335958,-0.000678298412822187,-9.817276954650879,0,0,28.178930282592773,1,1,1000,1000
1778782974.66024899,53844287,1,0.0006128383683972061,0.000780903035774827,0.0007722228765487671,-0.004155748523771763,-0.0002221188333351165,-9.817852020263672,0,0,28.178930282592773,1,1,760,800
1778782974.70023298,53884271,0,0.0008160695433616638,0.0007507532718591392,0.0007736743427813053,-0.0025880434550344944,-0.0005222831387072802,-9.817023277282715,0,0,28.18117332458496,1,1,1000,1000
1778782974.70023298,53884271,1,0.0008927109302021563,0.0007912087603472173,0.0006429622299037874,-0.0006047709612175822,0.0008707873057574034,-9.816768646240234,0,0,28.18117332458496,1,1,760,800
1778782974.74021697,53924255,0,0.0008212003158405423,0.0007855922449380159,0.0007712974329479039,-0.0005103152361698449,-0.0013188639422878623,-9.815871238708496,0,0,28.183414459228516,1,1,1000,1000
1778782974.74021697,53924255,1,0.0006920551531948149,0.0007479989435523748,0.0007830057293176651,-0.002817752305418253,-0.0011178761487826705,-9.818973541259766,0,0,28.183414459228516,1,1,760,800
1778782974.78020096,53964239,0,0.0008147762273438275,0.0007058999035507441,0.0007180783431977034,-0.002493605250492692,-0.0011042035184800625,-9.818558692932129,0,0,28.185657501220703,1,1,1000,1000
1778782974.78020096,53964239,1,0.0008037759107537568,0.0009187077521346509,0.0007881284691393375,-0.0010970969451591372,-0.0020989524200558662,-9.813881874084473,0,0,28.185657501220703,1,1,760,800
1778782974.82018518,54004223,0,0.0007707061595283449,0.0008748440304771066,0.0008180427830666304,-0.0005613945540972054,-0.0005899126990698278,-9.817009925842285,0,0,28.187843322753906,1,1,1000,1000
1778782974.82018518,54004223,1,0.0006077716825529933,0.001028487691655755,0.0006732563488185406,-0.0024490137584507465,0.0005530633497983217,-9.81737232208252,0,0,28.187843322753906,1,1,760,800
1778782974.86016917,54044207,0,0.0007998895598575473,0.0007801273604854941,0.0007975188200362027,-0.001008499413728714,-0.0009750759927555919,-9.817920684814453,0,0,28.19008445739746,1,1,1000,1000
1778782974.86016917,54044207,1,0.0007637431845068932,0.0008714675204828382,0.0009459347929805517,-0.001120775006711483,0.0009147750679403543,-9.81738567352295,0,0,28.19008445739746,1,1,760,800
1778782974.90015316,54084191,0,0.0008218907751142979,0.0008432319154962897,0.000802084687165916,-0.0006741922115907073,-0.0009346796432510018,-9.816974639892578,0,0,28.192325592041016,1,1,1000,1000
1778782974.90015316,54084191,1,0.0006561022019013762,0.0007566231652162969,0.0008066671434789896,-0.0005301100318320096,-0.00177307752892375,-9.817895889282227,0,0,28.192325592041016,1,1,760,800
1778782974.94013715,54124175,0,0.0007842205232009292,0.0007744274334982038,0.00078165577724576,-0.0009836088865995407,-0.0005157427513040602,-9.819421768188477,0,0,28.194564819335938,1,1,1000,1000
1778782974.94013715,54124175,1,0.0007273131050169468,0.0009002683218568563,0.000805479590781033,-0.00038530168239958584,0.0003814238589257002,-9.816123008728027,0,0,28.194564819335938,1,1,760,800
1778782974.98012114,54164159,0,0.0007694272790104151,0.000782239600084722,0.0007530387374572456,-0.0022114019375294447,-0.0003242019738536328,-9.816529273986816,0,0,28.196807861328125,1,1,1000,1000
1778782974.98012114,54164159,1,0.0007325377664528787,0.0007520689396187663,0.001043670461513102,-0.0013162217801436782,-0.0007661257404834032,-9.816793441772461,0,0,28.196807861328125,1,1,760,800
1778782975.02010512,54204143,0,0.0007422312628477812,0.0007845947984606028,0.0007518476340919733,-0.00025454230490140617,-0.0010260879062116146,-9.816851615905762,0,0,28.199047088623047,1,1,1000,1000
1778782975.02010512,54204143,1,0.0007143932743929327,0.0008784978417679667,0.0009120901813730597,-0.0006319780950434506,-0.0022828346118330956,-9.817941665649414,0,0,28.199047088623047,1,1,760,800
1778782975.06008911,54244127,0,0.0007899528718553483,0.0007592978654429317,0.0007542307721450925,-0.0015982635086402297,-0.0013500151690095663,-9.818096160888672,0,0,28.20128631591797,1,1,1000,1000
1778782975.06008911,54244127,1,0.0006573092541657388,0.0006062816828489304,0.000724943820387125,-0.001422186498530209,-0.0015736056957393885,-9.818367958068848,0,0,28.20128631591797,1,1,760,800
1778782975.10007310,54284111,0,0.000813049846328795,0.0007206921582110226,0.0007371040410362184,-0.0005918768001720309,-0.0016128194984048605,-9.816983222961426,0,0,28.203527450561523,1,1,1000,1000
1778782975.10007310,54284111,1,0.0009003439336083829,0.0007558864308521152,0.0006877949344925582,-0.0016014324501156807,-0.0028579619247466326,-9.81476879119873,0,0,28.203527450561523,1,1,760,800
1778782975.14005709,54324095,0,0.0007884862716309726,0.0008088943432085216,0.0007916082395240664,-0.001362154260277748,-0.0011732876300811768,-9.817581176757812,0,0,28.205766677856445,1,1,1000,1000
1778782975.14005709,54324095,1,0.0007824932690709829,0.0009150574915111065,0.0009304738487116992,-0.0023727365769445896,-0.0002606237248983234,-9.81692123413086,0,0,28.205766677856445,1,1,760,800
1778782975.18004107,54364079,0,0.000769729376770556,0.0007514117751270533,0.0007058119517751038,-0.0010116136400029063,-0.0007452779682353139,-9.817038536071777,0,0,28.208005905151367,1,1,1000,1000
1778782975.18004107,54364079,1,0.0008865525014698505,0.0008527897298336029,0.000773050298448652,-0.0009741242974996567,-0.0017200078582391143,-9.816608428955078,0,0,28.208005905151367,1,1,760,800
1778782975.22002506,54404063,0,0.0007187769515439868,0.000768578436691314,0.0008319949265569448,-0.000644945539534092,-0.0020602820441126823,-9.816017150878906,0,0,28.21030044555664,1,1,1000,1000
1778782975.22002506,54404063,1,0.00048002495896071196,0.0006755748763680458,0.0006060167797841132,-0.001201340463012457,-0.0021053501404821873,-9.81604290008545,0,0,28.210243225097656,1,1,760,800
1778782975.26000905,54444047,0,0.0007986617274582386,0.0007665689336135983,0.0007353173568844795,-0.0013806840870529413,-0.001775193028151989,-9.81789779663086,0,0,28.212539672851562,1,1,1000,1000
1778782975.26000905,54444047,1,0.0005295561859384179,0.0006795382359996438,0.0008642780594527721,5.2109608077444136e-05,-0.0008865013951435685,-9.819214820861816,0,0,28.212482452392578,1,1,760,800
1778782975.29999304,54484031,0,0.0007356034475378692,0.0007314318791031837,0.0008381597581319511,-0.0002700212353374809,-0.0006148950778879225,-9.816486358642578,0,0,28.21477699279785,1,1,1000,1000
1778782975.29999304,54484031,1,0.0010158901568502188,0.000676483556162566,0.0007215734804049134,0.0003553484857548028,-0.0010427330853417516,-9.818999290466309,0,0,28.214719772338867,1,1,760,800
1778782975.34081006,54524848,0,0.0007111359154805541,0.0007362868054769933,0.0006948679219931364,-0.0017249885713681579,-0.00024970408412627876,-9.817964553833008,0,0,28.21701431274414,1,1,1000,1000
1778782975.34081006,54524848,1,0.0006614318117499352,0.0008747781394049525,0.0007252469658851624,-0.0016720563871785998,-0.003310444299131632,-9.816890716552734,0,0,28.21701431274414,1,1,760,800
1778782975.38079405,54564832,0,0.0007798869046382606,0.0007038870244286954,0.0007189107127487659,-0.00237576337531209,-0.002941981889307499,-9.817480087280273,0,0,28.21925163269043,1,1,1000,1000
1778782975.38079405,54564832,1,0.0006729120505042374,0.0008731452981010079,0.0007132546743378043,-0.000642913393676281,-0.0005882116965949535,-9.815119743347168,0,0,28.21925163269043,1,1,760,800
1778782975.42077804,54604816,0,0.0007601986872032285,0.00074430659878999,0.0008099894039332867,-0.0015608376124873757,-0.0009703534888103604,-9.817300796508789,0,0,28.22148895263672,1,1,1000,1000
1778782975.42077804,54604816,1,0.0008826088160276413,0.0009822453139349818,0.000818732543848455,-0.0007306144689209759,-9.079003939405084e-05,-9.81895923614502,0,0,28.22148895263672,1,1,760,800
1778782975.46076202,54644800,0,0.0007632355554960668,0.0007332921959459782,0.0006968560628592968,-0.001079872832633555,-4.8650719691067934e-05,-9.81747817993164,0,0,28.223726272583008,1,1,1000,1000
1778782975.46076202,54644800,1,0.0008820737130008638,0.0006740745739080012,0.0008326278766617179,-0.003005216596648097,6.845885218353942e-05,-9.817636489868164,0,0,28.223726272583008,1,1,760,800
1778782975.50074601,54684784,0,0.0007632337510585785,0.0008201849414035678,0.0007203433779068291,-0.001374835497699678,-0.0011436319909989834,-9.8185453414917,0,0,28.225963592529297,1,1,1000,1000
1778782975.50074601,54684784,1,0.0008496498921886086,0.0009124203352257609,0.0008350861608050764,-0.00023988679458852857,-0.0008836010820232332,-9.81648063659668,0,0,28.225963592529297,1,1,760,800
1778782975.54073000,54724768,0,0.0007453829166479409,0.0007564591942355037,0.0006857920670881867,-0.00022028259991202503,-0.0012934040278196335,-9.81711483001709,0,0,28.228199005126953,1,1,1000,1000
1778782975.54073000,54724768,1,0.0007429469842463732,0.0008596171392127872,0.0007406161166727543,8.253066334873438e-05,-0.0004203924909234047,-9.81705093383789,0,0,28.228199005126953,1,1,760,800
1778782975.58071399,54764752,0,0.0007022147765383124,0.0008043778943829238,0.0007384816417470574,-0.00018154879217036068,-0.00012508020154200494,-9.815584182739258,0,0,28.230436325073242,1,1,1000,1000
1778782975.58071399,54764752,1,0.0007489656563848257,0.0006654324242845178,0.0008575411047786474,-0.0020317903254181147,-0.000530083489138633,-9.818063735961914,0,0,28.230436325073242,1,1,760,800
1778782975.62069798,54804736,0,0.00071106938412413,0.000683457707054913,0.0008838217472657561,-0.0011534186778590083,-0.002512345090508461,-9.817767143249512,0,0,28.2326717376709,1,1,1000,1000
1778782975.62069798,54804736,1,0.0005396697670221329,0.0005483420100063086,0.0009531704126857221,0.00044817966409027576,-0.0023414602037519217,-9.816900253295898,0,0,28.2326717376709,1,1,760,800
1778782975.66068196,54844720,0,0.0007532953750342131,0.0007933768793009222,0.0008291108533740044,-0.001278248499147594,-0.001807377440854907,-9.817476272583008,0,0,28.234907150268555,1,1,1000,1000
1778782975.66068196,54844720,1,0.0006995175499469042,0.0009388071484863758,0.0007421946502290666,-0.0013759937137365341,-0.0016485300147905946,-9.815008163452148,0,0,28.234907150268555,1,1,760,800
1778782975.70066619,54884704,0,0.0007825370412319899,0.0008080964908003807,0.000670247245579958,-0.0009855643147602677,-0.0005862026591785252,-9.81676959991455,0,0,28.23714256286621,1,1,1000,1000
1778782975.70066619,54884704,1,0.0008231615647673607,0.0007855730364099145,0.0007522980449721217,-0.002679483499377966,-0.00011086028098361567,-9.818731307983398,0,0,28.23714256286621,1,1,760,800
1778782975.74065018,54924688,0,0.0008139138808473945,0.0006695587653666735,0.0007791834068484604,-0.00065528170671314,-0.0011631693923845887,-9.816843032836914,0,0,28.239376068115234,1,1,1000,1000
1778782975.74065018,54924688,1,0.0008035877253860235,0.0008541657589375973,0.0008136369287967682,-0.0018635018495842814,-0.0012014198582619429,-9.816272735595703,0,0,28.239376068115234,1,1,760,800
1778782975.78063416,54964672,0,0.0008938585524447262,0.0007450585253536701,0.0007884340011514723,-0.00018426156020723283,0.00010127760469913483,-9.816888809204102,0,0,28.24161148071289,1,1,1000,1000
1778782975.78063416,54964672,1,0.0007398021407425404,0.0007430296391248703,0.0005520586273632944,-0.0009740679524838924,-0.00014158844714984298,-9.8199462890625,0,0,28.24161148071289,1,1,760,800
1778782975.82061815,55004656,0,0.0006804045406170189,0.000720021955203265,0.0007793286931701005,-0.00115286186337471,0.00019444676581770182,-9.816946029663086,0,0,28.243844985961914,1,1,1000,1000
1778782975.82061815,55004656,1,0.0006861475412733853,0.0007423619972541928,0.0005840924568474293,-0.0007987649296410382,-0.0018399840919300914,-9.819265365600586,0,0,28.243844985961914,1,1,760,800
1778782975.86060214,55044640,0,0.0008349412819370627,0.0008077892125584185,0.0007297160918824375,-0.0006222160300239921,-0.0005929733742959797,-9.817517280578613,0,0,28.24608039855957,1,1,1000,1000
1778782975.86060214,55044640,1,0.0007959227077662945,0.0007155067287385464,0.0010662885615602136,-0.0022626733407378197,-0.00030394853092730045,-9.817903518676758,0,0,28.24608039855957,1,1,760,800
1778782975.90058613,55084624,0,0.0007627920713275671,0.0007461320492438972,0.0006892498931847513,-0.0009251241572201252,-0.0007411306723952293,-9.81791877746582,0,0,28.248313903808594,1,1,1000,1000
1778782975.90058613,55084624,1,0.0006835376843810081,0.0007512582815252244,0.0009483118774369359,0.0011321307392790914,-0.000966806779615581,-9.81611156463623,0,0,28.248313903808594,1,1,760,800
1778782975.94057012,55124608,0,0.00073532440001145,0.0007533914176747203,0.0008532946230843663,-0.001068509416654706,-0.0014247022336348891,-9.817398071289062,0,0,28.250545501708984,1,1,1000,1000
1778782975.94057012,55124608,1,0.0008574410458095372,0.0007349798106588423,0.0006661632214672863,-0.0006853964296169579,-0.0030714848544448614,-9.81692886352539,0,0,28.250545501708984,1,1,760,800
1778782975.98055410,55164592,0,0.0007680627750232816,0.0007665753364562988,0.0007757421699352562,-0.001222327002324164,-0.0011915895156562328,-9.81704330444336,0,0,28.25278091430664,1,1,1000,1000
1778782975.98055410,55164592,1,0.000440223520854488,0.0008872196776792407,0.0007917627226561308,0.0002020408574026078,0.0009919379372149706,-9.817506790161133,0,0,28.25278091430664,1,1,760,800
1778782976.02053809,55204576,0,0.0008070565527305007,0.0007393265841528773,0.0007198406383395195,-0.0014508586609736085,-0.000355875410605222,-9.817161560058594,0,0,28.25501251220703,1,1,1000,1000
1778782976.02053809,55204576,1,0.0007149301236495376,0.0006033688550814986,0.0012524686753749847,-0.00042297475738450885,-0.00137026933953166,-9.816826820373535,0,0,28.25501251220703,1,1,760,800
1778782976.06052208,55244560,0,0.0008186508785001934,0.000791648868471384,0.0007235022494569421,-0.001252741669304669,-0.0011832521995529532,-9.816351890563965,0,0,28.257244110107422,1,1,1000,1000
1778782976.06052208,55244560,1,0.0006946964422240853,0.0007600182434543967,0.0009109197999350727,-0.0017503303242847323,0.000346165441442281,-9.818918228149414,0,0,28.257244110107422,1,1,760,800
1778782976.10050607,55284544,0,0.0007288132328540087,0.0007268303306773305,0.0007806544890627265,-0.0011284217471256852,-0.0012036843691021204,-9.817584037780762,0,0,28.259477615356445,1,1,1000,1000
1778782976.10050607,55284544,1,0.001016093767248094,0.0008500721305608749,0.000687465479131788,-0.001720795058645308,-0.0018676946638152003,-9.81685733795166,0,0,28.259477615356445,1,1,760,800
1778782976.14049006,55324528,0,0.0008531535277143121,0.0007278486154973507,0.000821536174044013,-0.0018010276835411787,-0.0012751343892887235,-9.817193031311035,0,0,28.261709213256836,1,1,1000,1000
1778782976.14049006,55324528,1,0.0006188974366523325,0.0008078443352133036,0.0006746960571035743,-0.0003361286362633109,-0.0005264222854748368,-9.81771183013916,0,0,28.261709213256836,1,1,760,800
1778782976.18047404,55364512,0,0.0007554652984254062,0.0007030988344922662,0.0008201882010325789,-0.0010214629583060741,-0.0012745035346597433,-9.81831169128418,0,0,28.263940811157227,1,1,1000,1000
1778782976.18047404,55364512,1,0.0006415760144591331,0.0008948574541136622,0.0007229417678900063,-0.0006831286591477692,-0.0009542850311845541,-9.819029808044434,0,0,28.263940811157227,1,1,760,800
1778782976.22045803,55404496,0,0.0008334683370776474,0.0008558332920074463,0.000860104919411242,-0.0010850002290681005,-0.001367908320389688,-9.817573547363281,0,0,28.266172409057617,1,1,1000,1000
1778782976.22045803,55404496,1,0.0008495952351950109,0.0008210478699766099,0.0007889490807428956,-0.0019029274117201567,-0.0018040461000055075,-9.819618225097656,0,0,28.266172409057617,1,1,760,800
1778782976.26044202,55444480,0,0.0007494568708352745,0.0006725456332787871,0.0008155222749337554,-0.0008892220794223249,-0.0018388335593044758,-9.818133354187012,0,0,28.268404006958008,1,1,1000,1000
1778782976.26044202,55444480,1,0.0006377462996169925,0.0009564444771967828,0.0008946176385506988,-0.001422611065208912,-0.000737910158932209,-9.81686782836914,0,0,28.268404006958008,1,1,760,800
1778782976.30042601,55484464,0,0.0008557143737562001,0.0008130997885018587,0.0007579267839901149,-0.00020781460625585169,-0.0004191882035229355,-9.817020416259766,0,0,28.270633697509766,1,1,1000,1000
1778782976.30042601,55484464,1,0.0006682687089778483,0.0006821769056841731,0.0010423100320622325,-0.000999200507067144,0.0005109884077683091,-9.817840576171875,0,0,28.270633697509766,1,1,760,800
1778782976.34040999,55524448,0,0.0007614463102072477,0.0007481834036298096,0.0008077407255768776,-0.0016204569255933166,-0.0017745564691722393,-9.816506385803223,0,0,28.272865295410156,1,1,1000,1000
1778782976.34040999,55524448,1,0.000613124982919544,0.0008230023668147624,0.0009821063140407205,-0.00067997194128111,0.001205506268888712,-9.817479133605957,0,0,28.272865295410156,1,1,760,800
1778782976.38039398,55564432,0,0.0008167593041434884,0.0007640274707227945,0.0008133240626193583,-0.0004203774151392281,-0.0003518137673381716,-9.817278861999512,0,0,28.275094985961914,1,1,1000,1000
1778782976.38039398,55564432,1,0.0008200388983823359,0.0005745427333749831,0.0007986372802406549,-0.00033238413743674755,-0.0010494370944797993,-9.818464279174805,0,0,28.275094985961914,1,1,760,800
1778782976.42037797,55604416,0,0.000830172561109066,0.0007523902459070086,0.0007663160795345902,-0.000967031461186707,-0.000688347383402288,-9.816716194152832,0,0,28.277324676513672,1,1,1000,1000
1778782976.42037797,55604416,1,0.0007348068756982684,0.0005489219911396503,0.0006034538964740932,-0.0015339023666456342,-0.0013170248130336404,-9.815590858459473,0,0,28.277324676513672,1,1,760,800
1778782976.46036196,55644400,0,0.0008408575667999685,0.0007362935575656593,0.0007771480595692992,-0.0006881947047077119,-6.638457125518471e-05,-9.817255973815918,0,0,28.27955436706543,1,1,1000,1000
1778782976.46036196,55644400,1,0.0008001127280294895,0.0007034486043266952,0.0007199128158390522,-0.0036212445702403784,-0.0003167740651406348,-9.815861701965332,0,0,28.27955436706543,1,1,760,800
1778782976.50034618,55684384,0,0.0008316278690472245,0.0008201127639040351,0.0007777594728395343,-0.0013630371540784836,-0.000790894846431911,-9.818620681762695,0,0,28.281784057617188,1,1,1000,1000
1778782976.50034618,55684384,1,0.000919714686460793,0.0007097867783159018,0.0006765504367649555,-0.004047316964715719,-0.00075960299000144,-9.817474365234375,0,0,28.281784057617188,1,1,760,800
1778782976.54033017,55724368,0,0.0007033492438495159,0.0007402357296086848,0.0007559272344224155,-0.0011340200435370207,-0.0009791671764105558,-9.816900253295898,0,0,28.284011840820312,1,1,1000,1000
1778782976.54033017,55724368,1,0.0007559140212833881,0.0005467747687362134,0.0010139595251530409,-0.00037801978760398924,-0.0011453565675765276,-9.817718505859375,0,0,28.284011840820312,1,1,760,800
1778782976.58031416,55764352,0,0.0007782458560541272,0.0007646807353012264,0.0007248091278597713,-0.001054648426361382,9.816682722885162e-05,-9.818553924560547,0,0,28.28624153137207,1,1,1000,1000
1778782976.58031416,55764352,1,0.00046740955440327525,0.0008271116530522704,0.0008267365046776831,-0.0007143710972741246,-0.0002382278034929186,-9.817438125610352,0,0,28.28624153137207,1,1,760,800
1778782976.62029815,55804336,0,0.0008640549494884908,0.0007204811554402113,0.0008168189087882638,-0.0005189914954826236,-0.0007203215500339866,-9.817261695861816,0,0,28.288469314575195,1,1,1000,1000
1778782976.62029815,55804336,1,0.0007898005424067378,0.0009759542299434543,0.0008620892185717821,-0.0015393092762678862,-0.0006501243333332241,-9.818567276000977,0,0,28.288469314575195,1,1,760,800
1778782976.66028214,55844320,0,0.0007908078841865063,0.000838381121866405,0.0007900767377577722,-0.00016314037202391773,-0.0013067828258499503,-9.817397117614746,0,0,28.29069709777832,1,1,1000,1000
1778782976.66028214,55844320,1,0.0005452924524433911,0.0009242152445949614,0.0009105883073061705,-0.0028714188374578953,-0.0008077670354396105,-9.819730758666992,0,0,28.29069709777832,1,1,760,800
1778782976.70026612,55884304,0,0.0007866399828344584,0.0008805120596662164,0.0007482297951355577,-0.00025626985006965697,-0.000821415800601244,-9.817089080810547,0,0,28.292924880981445,1,1,1000,1000
1778782976.70026612,55884304,1,0.00045160463196225464,0.0007525771507062018,0.0007811383111402392,0.0007205606088973582,-0.001063453033566475,-9.817254066467285,0,0,28.292924880981445,1,1,760,800
1778782976.74025011,55924288,0,0.000800269772298634,0.0007876998279243708,0.0008129109046421945,-0.0010462915524840355,-0.0012551115360110998,-9.81760311126709,0,0,28.29515266418457,1,1,1000,1000
1778782976.74025011,55924288,1,0.0007783034816384315,0.0005998880369588733,0.0005510097835212946,0.0006539380992762744,7.481287320842966e-05,-9.817501068115234,0,0,28.29515266418457,1,1,760,800
1778782976.78023410,55964272,0,0.0008102009305730462,0.000729957188013941,0.0007504165405407548,-0.000697565614245832,-0.00034778352710418403,-9.817367553710938,0,0,28.297380447387695,1,1,1000,1000
1778782976.78023410,55964272,1,0.0009015051182359457,0.0008128553163260221,0.0007044956437312067,0.00034944197977893054,-0.002349257469177246,-9.817405700683594,0,0,28.297380447387695,1,1,760,800
1778782976.82021809,56004256,0,0.000760879716835916,0.0008104942389763892,0.0007463631918653846,-0.0014975832309573889,-0.0013909402769058943,-9.817874908447266,0,0,28.299606323242188,1,1,1000,1000
1778782976.82021809,56004256,1,0.001064120209775865,0.0009603957878425717,0.0008194479160010815,-0.0024543446488678455,0.00042043632129207253,-9.817586898803711,0,0,28.299606323242188,1,1,760,800
1778782976.86020207,56044240,0,0.0007554809562861919,0.0007498688064515591,0.0008105122833512723,-0.002062091138213873,-0.001470815041102469,-9.818971633911133,0,0,28.30183219909668,1,1,1000,1000
1778782976.86020207,56044240,1,0.0007499167113564909,0.0006432422087527812,0.0005829072906635702,0.0004340076702646911,0.00017140639829449356,-9.818034172058105,0,0,28.30183219909668,1,1,760,800
1778782976.90018606,56084224,0,0.000741321942768991,0.0007948788697831333,0.0007770959637127817,-0.0013412658590823412,-0.0009553649579174817,-9.817607879638672,0,0,28.30400276184082,1,1,1000,1000
1778782976.90018606,56084224,1,0.000701535667758435,0.0008519728435203433,0.0007976407650858164,-0.0031224843114614487,-0.0007259337580762804,-9.817693710327148,0,0,28.30400276184082,1,1,760,800
1778782976.94017005,56124208,0,0.0007917968323454261,0.0007580260862596333,0.0007531836745329201,-0.00018575800640974194,-0.0016244291327893734,-9.816767692565918,0,0,28.306230545043945,1,1,1000,1000
1778782976.94017005,56124208,1,0.0009464696631766856,0.000667677610181272,0.0009333885391242802,0.00018609355902299285,0.0005261257756501436,-9.817922592163086,0,0,28.306230545043945,1,1,760,800
1778782976.98015404,56164192,0,0.000743847107514739,0.0007684073643758893,0.0008006166899576783,-0.0017303224885836244,-0.0003373149083927274,-9.817138671875,0,0,28.308456420898438,1,1,1000,1000
1778782976.98015404,56164192,1,0.0009266765555366874,0.0007436837768182158,0.0006371559575200081,-0.0012437154073268175,-0.004408369772136211,-9.81804370880127,0,0,28.308456420898438,1,1,760,800
1778782977.02013803,56204176,0,0.0007167892181314528,0.0007163002737797797,0.0007421933114528656,-0.0008369241841137409,-0.0016622982220724225,-9.817346572875977,0,0,28.310680389404297,1,1,1000,1000
1778782977.02013803,56204176,1,0.0007657759124413133,0.0004580270906444639,0.0006889840587973595,-0.0016800703015178442,-0.00012941121531184763,-9.81804370880127,0,0,28.310680389404297,1,1,760,800
1778782977.06012201,56244160,0,0.0008144914754666388,0.0007774070836603642,0.0008405445259995759,-0.000845220172777772,-0.00034294967190362513,-9.816568374633789,0,0,28.31290626525879,1,1,1000,1000
1778782977.06012201,56244160,1,0.0007039000629447401,0.0010124683612957597,0.000632703653536737,-0.0010519762290641665,-0.0009685470722615719,-9.815590858459473,0,0,28.31290626525879,1,1,760,800
1778782977.10010600,56284144,0,0.0007843197672627866,0.0008789062849245965,0.000778878340497613,-0.0019397314172238111,-0.002431725151836872,-9.81723690032959,0,0,28.31513023376465,1,1,1000,1000
1778782977.10010600,56284144,1,0.0007799430168233812,0.0009493980905972421,0.0007671454222872853,-7.526850822614506e-05,-0.0005431248573586345,-9.82016372680664,0,0,28.31513023376465,1,1,760,800
1778782977.14008999,56324128,0,0.0007194781792350113,0.0008033378981053829,0.0008026582654565573,-0.0013632550835609436,-0.0009374765795655549,-9.817899703979492,0,0,28.317354202270508,1,1,1000,1000
1778782977.14008999,56324128,1,0.0009323899867013097,0.0007746084593236446,0.0008178191492334008,0.00021630103583447635,-0.0015522047178819776,-9.814969062805176,0,0,28.317354202270508,1,1,760,800
1778782977.18007398,56364112,0,0.0009137799497693777,0.0007892186986282468,0.0007943289238028228,-0.0017511274199932814,-0.00020452406897675246,-9.818324089050293,0,0,28.319580078125,1,1,1000,1000
1778782977.18007398,56364112,1,0.0007564775878563523,0.0009014466777443886,0.0008713058778084815,5.2823561418335885e-05,0.0005745277157984674,-9.818304061889648,0,0,28.319580078125,1,1,760,800
1778782977.22005796,56404096,0,0.0007581734098494053,0.0008406370761804283,0.0008388878777623177,-0.0016299559501931071,-0.0015267779817804694,-9.816089630126953,0,0,28.32180404663086,1,1,1000,1000
1778782977.22005796,56404096,1,0.0006427323096431792,0.0006914795376360416,0.0007158747757785022,-2.705293445615098e-05,-0.00136840611230582,-9.817313194274902,0,0,28.32180404663086,1,1,760,800
1778782977.26004219,56444080,0,0.0007959614158608019,0.0007441913476213813,0.0007573360926471651,-0.0006007355405017734,-0.0016193019691854715,-9.818364143371582,0,0,28.32402801513672,1,1,1000,1000
1778782977.26004219,56444080,1,0.0008043545531108975,0.0008352154982276261,0.0006850575446151197,0.0008102181600406766,-0.0011490094475448132,-9.814501762390137,0,0,28.32402801513672,1,1,760,800
1778782977.30002618,56484064,0,0.0007398594752885401,0.0007414196152240038,0.0008428898290731013,-0.001029639272019267,-0.001401157001964748,-9.816328048706055,0,0,28.326305389404297,1,1,1000,1000
1778782977.30002618,56484064,1,0.0008482223493047059,0.0010015993611887097,0.0007841837359592319,-0.00011183483002241701,-0.0021893102675676346,-9.816789627075195,0,0,28.326250076293945,1,1,760,800
1778782977.34001017,56524048,0,0.0008670598035678267,0.0008878012886270881,0.0007576032658107579,-0.0020312394481152296,-0.00020258277072571218,-9.816675186157227,0,0,28.328529357910156,1,1,1000,1000
1778782977.34001017,56524048,1,0.0006573493592441082,0.0008688035886734724,0.0010152847971767187,-0.0009079614537768066,-0.0016952676232904196,-9.81800365447998,0,0,28.328474044799805,1,1,760,800
1778782977.37999415,56564032,0,0.0007640362600795925,0.0008044736459851265,0.0008464303100481629,-0.0007954173488542438,-0.0006565143121406436,-9.817339897155762,0,0,28.330751419067383,1,1,1000,1000
1778782977.37999415,56564032,1,0.0006916757556609809,0.000837388914078474,0.0007993520121090114,2.7167181542608887e-05,-0.0006245981203392148,-9.815286636352539,0,0,28.33069610595703,1,1,760,800
1778782977.42081118,56604849,0,0.0008480669930577278,0.0008174524991773069,0.0007999496883712709,-0.0008594012469984591,-0.00043351881322450936,-9.817493438720703,0,0,28.33297348022461,1,1,1000,1000
1778782977.42081118,56604849,1,0.0007972108433023095,0.0007227323367260396,0.0008873299229890108,-0.000793244456872344,-0.0012897381093353033,-9.81903076171875,0,0,28.33297348022461,1,1,760,800
1778782977.46079516,56644833,0,0.0007797569269314408,0.000825634109787643,0.0007980845402926207,-0.0002321310166735202,-0.0009486862691119313,-9.816900253295898,0,0,28.33519744873047,1,1,1000,1000
1778782977.46079516,56644833,1,0.0007854636060073972,0.00100241438485682,0.000715027388650924,-0.0003693219623528421,-0.0018303000833839178,-9.819570541381836,0,0,28.33519744873047,1,1,760,800
1778782977.50077915,56684817,0,0.0009056995622813702,0.0008608035277575254,0.0008037881343625486,-0.0005132976220920682,-0.0008629753720015287,-9.817706108093262,0,0,28.337417602539062,1,1,1000,1000
1778782977.50077915,56684817,1,0.000628205481916666,0.0007909506093710661,0.0007229255279526114,-0.0028837043792009354,-0.002237966051325202,-9.816645622253418,0,0,28.337417602539062,1,1,760,800
1778782977.54076314,56724801,0,0.0007687345496378839,0.0008373093442060053,0.0007318654097616673,-0.0002966867759823799,-0.0015869773924350739,-9.817519187927246,0,0,28.33963966369629,1,1,1000,1000
1778782977.54076314,56724801,1,0.0010807841317728162,0.0005910370964556932,0.0007861862541176379,0.0021004960872232914,-0.0031869583763182163,-9.8172607421875,0,0,28.33963966369629,1,1,760,800
1778782977.58074713,56764785,0,0.0007543558604083955,0.0008209483348764479,0.0008206323836930096,-0.0012562908232212067,-0.0014613228850066662,-9.817451477050781,0,0,28.341861724853516,1,1,1000,1000
1778782977.58074713,56764785,1,0.0008164542960003018,0.0008395982440561056,0.0007963169482536614,-0.0014395115431398153,-0.002797642955556512,-9.817481994628906,0,0,28.341861724853516,1,1,760,800
1778782977.62073112,56804769,0,0.0007251902716234326,0.0008074970683082938,0.0007534644100815058,-0.0006918033468537033,0.0002973742666654289,-9.816805839538574,0,0,28.34408187866211,1,1,1000,1000
1778782977.62073112,56804769,1,0.0009683724492788315,0.0006598582840524614,0.0009405275341123343,-0.003542772028595209,-0.00039763341192156076,-9.816566467285156,0,0,28.34408187866211,1,1,760,800
1778782977.66071510,56844753,0,0.0007663307478651404,0.0007320535369217396,0.0008319164044223726,-0.0010806338395923376,-0.0005838185315951705,-9.81706428527832,0,0,28.346302032470703,1,1,1000,1000
1778782977.66071510,56844753,1,0.0008035185164771974,0.0006678916979581118,0.0007415294530801475,-0.0013574524782598019,0.0017642441671341658,-9.817215919494629,0,0,28.346302032470703,1,1,760,800
1778782977.70069909,56884737,0,0.0007913691224530339,0.0008336282335221767,0.0008239825256168842,-0.00045142145245335996,-0.0010959480423480272,-9.817697525024414,0,0,28.348522186279297,1,1,1000,1000
1778782977.70069909,56884737,1,0.0005826319102197886,0.0006698621436953545,0.0006287759752012789,3.964159986935556e-07,-6.117113662185147e-05,-9.816781997680664,0,0,28.348522186279297,1,1,760,800
1778782977.74068308,56924721,0,0.0007581578101962805,0.0008236807188950479,0.0008638384169898927,-0.0005796929472126067,-0.0005431786412373185,-9.818047523498535,0,0,28.35074234008789,1,1,1000,1000
1778782977.74068308,56924721,1,0.0009492937242612243,0.0008360807551071048,0.0007765076588839293,0.00038013767334632576,0.00032788512180559337,-9.816448211669922,0,0,28.35074234008789,1,1,760,800
1778782977.78066707,56964705,0,0.0008718922617845237,0.0008559947600588202,0.0007464655791409314,-0.000909411464817822,-0.0005448110168799758,-9.817474365234375,0,0,28.352962493896484,1,1,1000,1000
1778782977.78066707,56964705,1,0.0008336780592799187,0.0011535735102370381,0.001001965720206499,0.00019745608733501285,-0.0012393215438351035,-9.816181182861328,0,0,28.352962493896484,1,1,760,800
1778782977.82065105,57004689,0,0.0008211444946937263,0.0007108870195224881,0.0007783831097185612,-0.0008139301789924502,-0.0004028828989248723,-9.816882133483887,0,0,28.355182647705078,1,1,1000,1000
1778782977.82065105,57004689,1,0.0007391715771518648,0.0009640181087888777,0.0009352784836664796,-0.002164483768865466,-0.0008018632652238011,-9.81610107421875,0,0,28.355182647705078,1,1,760,800
1778782977.86063504,57044673,0,0.0008845627307891846,0.0008813906461000443,0.0007657991372980177,-0.00042466315790079534,-0.0010723742889240384,-9.816571235656738,0,0,28.35740089416504,1,1,1000,1000
1778782977.86063504,57044673,1,0.0007220595143735409,0.0008554670494049788,0.0008214808185584843,-0.0015873488737270236,-0.0014883603435009718,-9.81795597076416,0,0,28.35740089416504,1,1,760,800
1778782977.90061903,57084657,0,0.0007433135178871453,0.0008074292563833296,0.0008398317731916904,-0.0017578830011188984,-0.0002775563334580511,-9.818252563476562,0,0,28.359621047973633,1,1,1000,1000
1778782977.90061903,57084657,1,0.0005845966516062617,0.0005900260293856263,0.0007096267072483897,-0.0001691552606644109,0.0013058268232271075,-9.81472396850586,0,0,28.359621047973633,1,1,760,800
1778782977.94060302,57124641,0,0.0007938359631225467,0.0008418454672209918,0.0008219940355047584,-0.000581292319111526,-0.0012925005285069346,-9.817121505737305,0,0,28.361839294433594,1,1,1000,1000
1778782977.94060302,57124641,1,0.0009917716961354017,0.0010379457380622625,0.0007851923583075404,-0.00042456630035303533,-0.003339943243190646,-9.818126678466797,0,0,28.361839294433594,1,1,760,800
1778782977.98058701,57164625,0,0.0008136582328006625,0.0008058100356720388,0.0008276382577605546,-0.0013500701170414686,-0.0013649670872837305,-9.817926406860352,0,0,28.364057540893555,1,1,1000,1000
1778782977.98058701,57164625,1,0.0005095080123282969,0.0008549533085897565,0.0007588377920910716,-0.0025043345522135496,-0.001289147767238319,-9.816882133483887,0,0,28.364057540893555,1,1,760,800
1778782978.02057099,57204609,0,0.0007542805396951735,0.000801292946562171,0.0007407482480630279,0.00014718950842507184,-0.0008864606497809291,-9.818007469177246,0,0,28.366275787353516,1,1,1000,1000
1778782978.02057099,57204609,1,0.0008520190604031086,0.0006631190772168338,0.0008793653687462211,-0.001772088697180152,-0.0021601389162242413,-9.818574905395508,0,0,28.366275787353516,1,1,760,800
1778782978.06055498,57244593,0,0.0008132992079481483,0.0007524864049628377,0.0008661554893478751,-0.0010636651422828436,-0.0016100038774311543,-9.817899703979492,0,0,28.368492126464844,1,1,1000,1000
1778782978.06055498,57244593,1,0.0008900030516088009,0.00080416991841048,0.0007200631080195308,-0.0032870483119040728,0.0005847978172823787,-9.818666458129883,0,0,28.368492126464844,1,1,760,800
1778782978.10053897,57284577,0,0.0008333208970725536,0.0008139258134178817,0.000750039063859731,-0.0015782923437654972,-0.0003143477370031178,-9.817581176757812,0,0,28.370710372924805,1,1,1000,1000
1778782978.10053897,57284577,1,0.0007113321917131543,0.0008986046887002885,0.0007325152400881052,-0.0016056728782132268,-0.0013725637691095471,-9.816444396972656,0,0,28.370710372924805,1,1,760,800
1778782978.14052320,57324561,0,0.0007452314021065831,0.0008415508782491088,0.0007661525160074234,-0.0016915604937821627,-0.00031119835330173373,-9.817419052124023,0,0,28.372926712036133,1,1,1000,1000
1778782978.14052320,57324561,1,0.0007797477883286774,0.0008292224374599755,0.0005291296984069049,-0.0018453847151249647,-0.0009249461581930518,-9.817914962768555,0,0,28.372926712036133,1,1,760,800
1778782978.18050718,57364545,0,0.0007423539645969868,0.0007952427840791643,0.000769362784922123,-0.0003809157060459256,-0.0003125671355519444,-9.817499160766602,0,0,28.375144958496094,1,1,1000,1000
1778782978.18050718,57364545,1,0.0007266103057190776,0.0008960309205576777,0.0009523793705739081,-0.00038068214780651033,-0.0004619968531187624,-9.817655563354492,0,0,28.375144958496094,1,1,760,800
1778782978.22049117,57404529,0,0.0008222156320698559,0.0007974471664056182,0.0008418225916102529,-0.0008187359781004488,-0.0007001321646384895,-9.817548751831055,0,0,28.37735939025879,1,1,1000,1000
1778782978.22049117,57404529,1,0.0007502336520701647,0.0009748082375153899,0.0006380624254234135,-0.0008472198387607932,0.0007125058909878135,-9.81966781616211,0,0,28.37735939025879,1,1,760,800
1778782978.26047516,57444513,0,0.0007961720111779869,0.0007718589622527361,0.0008279613684862852,-0.0011153769446536899,-0.0012492258101701736,-9.818615913391113,0,0,28.379575729370117,1,1,1000,1000
1778782978.26047516,57444513,1,0.0008597640553489327,0.0010409128153696656,0.0008685915963724256,-0.0008603325113654137,-0.005372009705752134,-9.817562103271484,0,0,28.379575729370117,1,1,760,800
1778782978.30045915,57484497,0,0.0007766577764414251,0.0007577104261144996,0.0008047269657254219,-0.001406729919835925,8.499541763740126e-06,-9.817636489868164,0,0,28.381792068481445,1,1,1000,1000
1778782978.30045915,57484497,1,0.0006204691017046571,0.0008576420950703323,0.0009785954607650638,0.0012591354316100478,-0.0013913734583184123,-9.817533493041992,0,0,28.381792068481445,1,1,760,800
1778782978.34044313,57524481,0,0.0008562898146919906,0.0008439580560661852,0.0008858364308252931,-0.0007628706516698003,-0.0010640299879014492,-9.818145751953125,0,0,28.384008407592773,1,1,1000,1000
1778782978.34044313,57524481,1,0.0007189311436377466,0.0007663971045985818,0.0008405526168644428,-0.0021780761890113354,-0.0035651482176035643,-9.818005561828613,0,0,28.384008407592773,1,1,760,800
1778782978.38042712,57564465,0,0.0007661372656002641,0.000837561790831387,0.0007784415502101183,-0.0010300690773874521,-0.001444241264835,-9.817066192626953,0,0,28.38622283935547,1,1,1000,1000
1778782978.38042712,57564465,1,0.0006266417913138866,0.0007419053581543267,0.0007781781605444849,-0.002561501692980528,-0.0013322612503543496,-9.818170547485352,0,0,28.38622283935547,1,1,760,800
1778782978.42041111,57604449,0,0.0008010593592189252,0.0008555392269045115,0.0007849817629903555,-0.00122649350669235,-0.0018635090673342347,-9.817514419555664,0,0,28.388439178466797,1,1,1000,1000
1778782978.42041111,57604449,1,0.0009776863735169172,0.0007616991642862558,0.0010573867475613952,-0.0017171807121485472,-0.001160584855824709,-9.816730499267578,0,0,28.388439178466797,1,1,760,800
1778782978.46039510,57644433,0,0.0008504380821250379,0.0008195786504074931,0.0007963841781020164,-0.0008576426771469414,-0.0015231776051223278,-9.816756248474121,0,0,28.390653610229492,1,1,1000,1000
1778782978.46039510,57644433,1,0.00047213290235958993,0.0006668316200375557,0.0007159049273468554,-0.000739912036806345,0.00025984548847191036,-9.816079139709473,0,0,28.390653610229492,1,1,760,800
1778782978.50037909,57684417,0,0.0008551250793971121,0.0007764234323985875,0.0008175947004929185,1.366382093692664e-05,-0.00201585004106164,-9.818472862243652,0,0,28.392868041992188,1,1,1000,1000
1778782978.50037909,57684417,1,0.0008174382383003831,0.0008813810418359935,0.0006712982431054115,0.0018706497503444552,0.00022248318418860435,-9.819122314453125,0,0,28.392868041992188,1,1,760,800
1778782978.54036307,57724401,0,0.0007298067212104797,0.0008315321174450219,0.0007426678203046322,-0.000606956600677222,-0.0015204822411760688,-9.816850662231445,0,0,28.395082473754883,1,1,1000,1000
1778782978.54036307,57724401,1,0.0007952463929541409,0.0006927865906618536,0.0006611583521589637,0.0014495734358206391,-0.0014964193105697632,-9.81635856628418,0,0,28.395082473754883,1,1,760,800
1778782978.58034706,57764385,0,0.000855275196954608,0.0008675177814438939,0.0007793436525389552,-0.0014223026810213923,-0.001626724610105157,-9.817030906677246,0,0,28.397294998168945,1,1,1000,1000
1778782978.58034706,57764385,1,0.0009850350907072425,0.0008431687601841986,0.0007515593315474689,-0.002190179890021682,-0.0028422933537513018,-9.81741714477539,0,0,28.397294998168945,1,1,760,800
1778782978.62033105,57804369,0,0.0007771849632263184,0.000746671692468226,0.0008303950307890773,-0.00046285655116662383,-0.0007817898876965046,-9.816896438598633,0,0,28.39950942993164,1,1,1000,1000
1778782978.62033105,57804369,1,0.0006592641002498567,0.0008961426210589707,0.0008091824711300433,-0.0010811740066856146,0.0006842953152954578,-9.818011283874512,0,0,28.39950942993164,1,1,760,800
1778782978.66031504,57844353,0,0.0008133906521834433,0.0008556804968975484,0.0007631658809259534,-0.0013112956658005714,-0.001576542854309082,-9.817421913146973,0,0,28.401721954345703,1,1,1000,1000
1778782978.66031504,57844353,1,0.0008542442228645086,0.001098064356483519,0.0007598146330565214,-0.0026118529494851828,5.044890713179484e-06,-9.818662643432617,0,0,28.401721954345703,1,1,760,800
1778782978.70029902,57884337,0,0.0007788548246026039,0.0007989988080225885,0.0007845801883377135,-0.0006982488557696342,-0.0007013558060862124,-9.817498207092285,0,0,28.403934478759766,1,1,1000,1000
1778782978.70029902,57884337,1,0.0005386167904362082,0.001041141338646412,0.0009102853946387768,-0.0017555106896907091,0.001210954156704247,-9.815864562988281,0,0,28.403934478759766,1,1,760,800
1778782978.74028301,57924321,0,0.0007828082889318466,0.0008042227709665895,0.0008136334363371134,-0.0008310721023008227,-0.0008338698535226285,-9.817774772644043,0,0,28.406147003173828,1,1,1000,1000
1778782978.74028301,57924321,1,0.0007319895667023957,0.0005823486717417836,0.0008987519540823996,0.00020870545995421708,0.0003481385065242648,-9.814254760742188,0,0,28.406147003173828,1,1,760,800
1778782978.78026700,57964305,0,0.0007955130422487855,0.0008342229411937296,0.0008433287730440497,-0.001860438147559762,-0.0010721299331635237,-9.818408012390137,0,0,28.40835952758789,1,1,1000,1000
1778782978.78026700,57964305,1,0.0010010787518694997,0.0007524928078055382,0.0006927418289706111,-0.0021671252325177193,-0.0012039700523018837,-9.8158540725708,0,0,28.40835952758789,1,1,760,800
1778782978.82025099,58004289,0,0.0007403877680189908,0.0007868531392887235,0.0008633183315396309,-0.0013343661557883024,-0.002153521403670311,-9.818015098571777,0,0,28.410572052001953,1,1,1000,1000
1778782978.82025099,58004289,1,0.0006975794094614685,0.0007096360204741359,0.0007520203362219036,-0.0016266298480331898,-0.001341657480224967,-9.816410064697266,0,0,28.410572052001953,1,1,760,800
1778782978.86023498,58044273,0,0.0008730572299100459,0.0008578340639360249,0.0008228789665736258,-0.0012322660768404603,-0.0005919270915910602,-9.817256927490234,0,0,28.412784576416016,1,1,1000,1000
1778782978.86023498,58044273,1,0.0007155432249419391,0.0007152541656978428,0.0008491681655868888,-0.0002966029569506645,-0.0027257208712399006,-9.815927505493164,0,0,28.412784576416016,1,1,760,800
1778782978.90021896,58084257,0,0.0008083194843493402,0.000855684804264456,0.00083203986287117,-0.0002032154006883502,-0.0014711504336446524,-9.81727409362793,0,0,28.414995193481445,1,1,1000,1000
1778782978.90021896,58084257,1,0.0007978856447152793,0.0007976882043294609,0.0006795197259634733,-0.0006873010424897075,-0.0009549603564664721,-9.820384979248047,0,0,28.414995193481445,1,1,760,800
1778782978.94020319,58124241,0,0.0008478171657770872,0.0007591093890368938,0.0007728206692263484,-0.001392435748130083,-0.000929707195609808,-9.817476272583008,0,0,28.417207717895508,1,1,1000,1000
1778782978.94020319,58124241,1,0.0006487888749688864,0.0008143373997882009,0.0009291663300246,-9.81539415079169e-05,8.755675662541762e-05,-9.820561408996582,0,0,28.417207717895508,1,1,760,800
1778782978.98018718,58164225,0,0.0008617502171546221,0.0007880633929744363,0.0007840876933187246,-0.0006857287371531129,-0.002347224857658148,-9.817273139953613,0,0,28.419363021850586,1,1,1000,1000
1778782978.98018718,58164225,1,0.0007054744055494666,0.001091995625756681,0.0007072379230521619,-0.0002661618054844439,-0.0013796254061162472,-9.820099830627441,0,0,28.419363021850586,1,1,760,800
1778782979.02017117,58204209,0,0.0008034213096834719,0.0008137981640174985,0.0008773256558924913,1.133818022935884e-05,-0.001345588592812419,-9.817022323608398,0,0,28.421571731567383,1,1,1000,1000
1778782979.02017117,58204209,1,0.0008421623497270048,0.0006147829699330032,0.0006729082087986171,-0.0012256193440407515,0.0007432372076436877,-9.818063735961914,0,0,28.421571731567383,1,1,760,800
1778782979.06015515,58244193,0,0.0007970184669829905,0.0008405997650697827,0.0007930808351375163,-0.0009415877284482121,-0.0023300389293581247,-9.818079948425293,0,0,28.423784255981445,1,1,1000,1000
1778782979.06015515,58244193,1,0.0009177355095744133,0.0008915819926187396,0.0009542540647089481,-0.0006162711651995778,0.0004244751762598753,-9.817484855651855,0,0,28.423784255981445,1,1,760,800
1778782979.10013914,58284177,0,0.000913683557882905,0.0007909140549600124,0.0007725657196715474,5.0189428293379024e-05,-0.0008429400040768087,-9.818365097045898,0,0,28.425994873046875,1,1,1000,1000
1778782979.10013914,58284177,1,0.0008920052205212414,0.0006906395428813994,0.0005834965268149972,0.001667096745222807,-0.0044299024157226086,-9.820257186889648,0,0,28.425994873046875,1,1,760,800
1778782979.14012313,58324161,0,0.0008340504136867821,0.0007599437376484275,0.0008084242581389844,-0.0010682456195354462,-0.0006408613407984376,-9.817594528198242,0,0,28.428203582763672,1,1,1000,1000
1778782979.14012313,58324161,1,0.0005751578719355166,0.0007855789735913277,0.0008138160919770598,-0.0011591094080358744,-0.0028733457438647747,-9.817154884338379,0,0,28.428203582763672,1,1,760,800
1778782979.18010712,58364145,0,0.0008525727898813784,0.0008255058201029897,0.0008148184278979897,-0.001455503050237894,-0.0007354611298069358,-9.817058563232422,0,0,28.43041229248047,1,1,1000,1000
1778782979.18010712,58364145,1,0.0007550375303253531,0.0008427755674347281,0.0008063939167186618,0.0008918314706534147,-0.0024370532482862473,-9.816435813903809,0,0,28.43041229248047,1,1,760,800
1778782979.22009110,58404129,0,0.0008353437297046185,0.000787144701462239,0.0008387474808841944,-0.0005854271003045142,-0.0013606302672997117,-9.817813873291016,0,0,28.432621002197266,1,1,1000,1000
1778782979.22009110,58404129,1,0.0008139571291394532,0.0007364485063590109,0.0007309343200176954,-0.00472389068454504,-0.0037041911855340004,-9.817365646362305,0,0,28.432621002197266,1,1,760,800
1778782979.26007509,58444113,0,0.0007597840158268809,0.0007471588323824108,0.0008566839387640357,-0.0008076716330833733,-0.0005893518100492656,-9.817092895507812,0,0,28.434831619262695,1,1,1000,1000
1778782979.26007509,58444113,1,0.000791991944424808,0.000790837628301233,0.0006839913548901677,-0.0013857184676453471,-0.002868407405912876,-9.820442199707031,0,0,28.434831619262695,1,1,760,800
1778782979.30005908,58484097,0,0.0008583868620917201,0.0007960674120113254,0.0008649412193335593,-0.0015444952296093106,-0.000502858660183847,-9.818130493164062,0,0,28.43703842163086,1,1,1000,1000
1778782979.30005908,58484097,1,0.0008213170222006738,0.0008045068825595081,0.0008891576435416937,0.00014756391465198249,-0.0003817749675363302,-9.81901741027832,0,0,28.43703842163086,1,1,760,800
1778782979.34004307,58524081,0,0.0008866859134286642,0.0008097050013020635,0.0007446821546182036,-0.0003610122948884964,-0.0004995381459593773,-9.817346572875977,0,0,28.439247131347656,1,1,1000,1000
1778782979.34004307,58524081,1,0.0008637271821498871,0.0007921067299321294,0.0009067095234058797,-6.5792582972790115e-06,-0.0022732913494110107,-9.818675994873047,0,0,28.439247131347656,1,1,760,800
1778782979.38002706,58564065,0,0.000885066925548017,0.0007311260560527444,0.0008070295443758368,0.00016123359091579914,-0.0018390165641903877,-9.81773567199707,0,0,28.441509246826172,1,1,1000,1000
1778782979.38002706,58564065,1,0.0011272320989519358,0.0009758528904058039,0.0008250611135736108,-0.003472596872597933,-0.00310356542468071,-9.817590713500977,0,0,28.441455841064453,1,1,760,800
1778782979.42001104,58604049,0,0.0008999973651953042,0.0007237568497657776,0.0008427986758761108,-0.00020776657038368285,-0.0009144319919869304,-9.816853523254395,0,0,28.44371795654297,1,1,1000,1000
1778782979.42001104,58604049,1,0.0005555868847295642,0.0009178302716463804,0.000854531186632812,-0.0011931571643799543,0.0006436433177441359,-9.81682014465332,0,0,28.443662643432617,1,1,760,800
1778782979.45999503,58644033,0,0.0007923063240014017,0.0007593955378979445,0.0007955817272886634,-0.0013301994185894728,-2.3925451387185603e-05,-9.817508697509766,0,0,28.445926666259766,1,1,1000,1000
1778782979.45999503,58644033,1,0.0007566356798633933,0.0005503236316144466,0.0008014705963432789,0.0004602649714797735,-0.0022972894366830587,-9.819053649902344,0,0,28.445871353149414,1,1,760,800
1778782979.50081205,58684850,0,0.0007875657174736261,0.000812105368822813,0.0007431627018377185,-0.0023865527473390102,-0.0007163220434449613,-9.817184448242188,0,0,28.448131561279297,1,1,1000,1000
1778782979.50081205,58684850,1,0.0005340003990568221,0.00048473698552697897,0.0007135621272027493,0.0002066635643132031,-0.0018135677091777325,-9.81705379486084,0,0,28.448131561279297,1,1,760,800
1778782979.54079604,58724834,0,0.0008653876720927656,0.0008356880862265825,0.000846139038912952,-0.0008557351538911462,-0.001205712789669633,-9.818402290344238,0,0,28.45033836364746,1,1,1000,1000
1778782979.54079604,58724834,1,0.0008186046034097672,0.0006265311967581511,0.0007429920369759202,-0.001942231087014079,-0.000287504808511585,-9.817647933959961,0,0,28.45033836364746,1,1,760,800
1778782979.58078003,58764818,0,0.0008128073532134295,0.000801202142611146,0.000854749174322933,-0.001558365998789668,-0.0017025857232511044,-9.816774368286133,0,0,28.452545166015625,1,1,1000,1000
1778782979.58078003,58764818,1,0.0008701284532435238,0.0009069832740351558,0.0009316219948232174,6.830217898823321e-05,-0.0016031323466449976,-9.816276550292969,0,0,28.452545166015625,1,1,760,800
1778782979.62076402,58804802,0,0.0007992241298779845,0.0008463964913971722,0.0008664809283800423,-0.0010638975072652102,-0.0005400091176852584,-9.817822456359863,0,0,28.45475196838379,1,1,1000,1000
1778782979.62076402,58804802,1,0.0007026366656646132,0.0008661183528602123,0.0009983094641938806,-0.0021273596212267876,-0.0021849852055311203,-9.816397666931152,0,0,28.45475196838379,1,1,760,800
1778782979.66074800,58844786,0,0.0007990432204678655,0.0008300489862449467,0.0007989631849341094,-0.0008699902682565153,-0.0006316708168014884,-9.817533493041992,0,0,28.45695686340332,1,1,1000,1000
1778782979.66074800,58844786,1,0.0008712003473192453,0.000602321291808039,0.001008188701234758,-0.0006153126596473157,0.00018008238112088293,-9.812094688415527,0,0,28.45695686340332,1,1,760,800
1778782979.70073199,58884770,0,0.0008214819245040417,0.0008769681444391608,0.0008704736828804016,-0.0012413947843015194,-7.3102222813759e-05,-9.8165283203125,0,0,28.459163665771484,1,1,1000,1000
1778782979.70073199,58884770,1,0.0006359932012856007,0.0008908432209864259,0.0007103672833181918,0.0003454494581092149,-0.0010399845195934176,-9.816730499267578,0,0,28.459163665771484,1,1,760,800
1778782979.74071598,58924754,0,0.0008075788500718772,0.0007809263188391924,0.0008726721862331033,-0.0010942532680928707,-0.0007587770815007389,-9.817317962646484,0,0,28.461368560791016,1,1,1000,1000
1778782979.74071598,58924754,1,0.001041050418280065,0.0007305584149435163,0.0008377109188586473,0.0006535761058330536,-0.0019214332569390535,-9.814179420471191,0,0,28.461368560791016,1,1,760,800
1778782979.78069997,58964738,0,0.0008235315908677876,0.0008642704342491925,0.0008616457926109433,-0.0008109383634291589,-0.00035067362478002906,-9.817070007324219,0,0,28.463573455810547,1,1,1000,1000
1778782979.78069997,58964738,1,0.0008931191405281425,0.0008977793040685356,0.0007813585689291358,-0.0016178401419892907,-0.001764754531905055,-9.820236206054688,0,0,28.463573455810547,1,1,760,800
1778782979.82068419,59004722,0,0.0008220775052905083,0.0008044621208682656,0.0008598141139373183,-0.00046470071538351476,-0.0004086648696102202,-9.817440032958984,0,0,28.465778350830078,1,1,1000,1000
1778782979.82068419,59004722,1,0.0010604213457554579,0.0008128895424306393,0.0007966336561366916,-0.00042011128971353173,-0.0025048465467989445,-9.81708812713623,0,0,28.465778350830078,1,1,760,800
1778782979.86066818,59044706,0,0.0007390666287392378,0.0008408524445258081,0.000748301565181464,-0.0015395758673548698,-0.001966638956218958,-9.8173828125,0,0,28.46798324584961,1,1,1000,1000
1778782979.86066818,59044706,1,0.0009711575694382191,0.0008964876178652048,0.0009158335160464048,0.001221741666086018,-0.000547613890375942,-9.819162368774414,0,0,28.46798324584961,1,1,760,800
1778782979.90065217,59084690,0,0.0008626365452073514,0.0008943595457822084,0.0008556425455026329,-0.0007937655318528414,-0.002412328729405999,-9.817420959472656,0,0,28.47018814086914,1,1,1000,1000
1778782979.90065217,59084690,1,0.0007577205542474985,0.0010398024460300803,0.0008355390164069831,-0.0019900042098015547,-0.0005342264194041491,-9.816726684570312,0,0,28.47018814086914,1,1,760,800
1778782979.94063616,59124674,0,0.0008762686047703028,0.000785709940828383,0.0007830880349501967,-0.0013677056413143873,-0.0004798244044650346,-9.816276550292969,0,0,28.47239112854004,1,1,1000,1000
1778782979.94063616,59124674,1,0.0008430955349467695,0.0008742142817936838,0.0009693376487120986,-0.0021605943329632282,-0.0010690971976146102,-9.818775177001953,0,0,28.47239112854004,1,1,760,800
1778782979.98062015,59164658,0,0.0008844720432534814,0.0007630654727108777,0.0008481081458739936,-0.0028320469427853823,-0.0005676323198713362,-9.817758560180664,0,0,28.474594116210938,1,1,1000,1000
1778782979.98062015,59164658,1,0.0008161341538652778,0.0006175277521833777,0.000615516968537122,-0.0037678489461541176,-0.0014543832512572408,-9.816722869873047,0,0,28.474594116210938,1,1,760,800
1778782980.02060413,59204642,0,0.0007889934931881726,0.0008971979841589928,0.0008399283979088068,-0.0009222091175615788,-0.00098440854344517,-9.817668914794922,0,0,28.476797103881836,1,1,1000,1000
1778782980.02060413,59204642,1,0.0005815279437229037,0.0007924761157482862,0.0007780783344060183,-0.0031051950063556433,0.00018711359007284045,-9.81753158569336,0,0,28.476797103881836,1,1,760,800
1778782980.06058812,59244626,0,0.0008650931995362043,0.0008331041317433119,0.0008855006890371442,-0.0012940348824486136,0.0006145160878077149,-9.817062377929688,0,0,28.479000091552734,1,1,1000,1000
1778782980.06058812,59244626,1,0.0008782256627455354,0.0007979222573339939,0.0007818292360752821,-0.0011631111847236753,0.002870409283787012,-9.81717586517334,0,0,28.479000091552734,1,1,760,800
1778782980.10057211,59284610,0,0.0008066270384006202,0.0007762642344459891,0.0008202312747016549,-0.0007900219643488526,-0.0015123642515391111,-9.817375183105469,0,0,28.481203079223633,1,1,1000,1000
1778782980.10057211,59284610,1,0.0008573952363803983,0.0007484375964850187,0.0008002223912626505,-0.002141810953617096,0.0012181894853711128,-9.816944122314453,0,0,28.481203079223633,1,1,760,800
1778782980.14055610,59324594,0,0.0008128793560899794,0.00072900066152215,0.0008043092675507069,-0.0002877512888517231,7.024037040537223e-05,-9.818304061889648,0,0,28.48340606689453,1,1,1000,1000
1778782980.14055610,59324594,1,0.0007838804740458727,0.0005606364575214684,0.0009849349735304713,-0.0023252388928085566,-0.0018157231388613582,-9.81698226928711,0,0,28.48340606689453,1,1,760,800
1778782980.18054008,59364578,0,0.0008326134411618114,0.0008618153515271842,0.000823361100628972,-0.000677678850479424,-0.000407663406804204,-9.818169593811035,0,0,28.485607147216797,1,1,1000,1000
1778782980.18054008,59364578,1,0.0008071133634075522,0.0009785755537450314,0.0009872026275843382,-0.002288325224071741,-0.0015471598599106073,-9.819441795349121,0,0,28.485607147216797,1,1,760,800
1778782980.22052407,59404562,0,0.0007909686537459493,0.0007691021892242134,0.0008317574393004179,-0.0012280915398150682,-0.001452342257834971,-9.817814826965332,0,0,28.487810134887695,1,1,1000,1000
1778782980.22052407,59404562,1,0.0008056781953200698,0.0009296436328440905,0.0008063092245720327,-0.002824792405590415,-0.0005574218230322003,-9.81683349609375,0,0,28.487810134887695,1,1,760,800
1778782980.26050806,59444546,0,0.000878611346706748,0.0008780579664744437,0.0007984503754414618,-0.0004366270441096276,-0.0003930751408915967,-9.817466735839844,0,0,28.49001121520996,1,1,1000,1000
1778782980.26050806,59444546,1,0.0009124373318627477,0.0008307592361234128,0.0009642166551202536,0.0007586705032736063,0.000410984706832096,-9.816680908203125,0,0,28.49001121520996,1,1,760,800
1778782980.30049205,59484530,0,0.0008241791510954499,0.0009328763117082417,0.0008049832540564239,-0.0004707762273028493,-0.0011294807773083448,-9.817262649536133,0,0,28.492212295532227,1,1,1000,1000
1778782980.30049205,59484530,1,0.0008245434146374464,0.0008742789505049586,0.0009416633984073997,-0.002381814643740654,-0.0010536722838878632,-9.816530227661133,0,0,28.492212295532227,1,1,760,800
1778782980.34047604,59524514,0,0.0009095538989640772,0.0008344816160388291,0.0009271454764530063,-0.0004468634142540395,-0.0007564887055195868,-9.81683349609375,0,0,28.494413375854492,1,1,1000,1000
1778782980.34047604,59524514,1,0.0007187722949311137,0.0008682908955961466,0.0008723774226382375,-0.0005632602260448039,0.0018757623620331287,-9.816962242126465,0,0,28.494413375854492,1,1,760,800
1778782980.38046002,59564498,0,0.0007815811550244689,0.000874693738296628,0.0008730742847546935,-0.0015996373258531094,-0.001151170232333243,-9.818133354187012,0,0,28.496612548828125,1,1,1000,1000
1778782980.38046002,59564498,1,0.0007340050651691854,0.0009096778812818229,0.0008028344600461423,-0.0018505733460187912,-0.00034047808730974793,-9.81648063659668,0,0,28.496612548828125,1,1,760,800
1778782980.42044401,59604482,0,0.0008210985688492656,0.0008286305237561464,0.0008777681505307555,-0.0015712801832705736,0.0005498185055330396,-9.817626953125,0,0,28.49881362915039,1,1,1000,1000
1778782980.42044401,59604482,1,0.00043610690045170486,0.0006918106228113174,0.0009133672574535012,0.0014498878736048937,0.0003762523119803518,-9.818167686462402,0,0,28.49881362915039,1,1,760,800
1778782980.46042800,59644466,0,0.0008663285989314318,0.000820519810076803,0.0008492943597957492,-0.0013552114833146334,-0.0008322380017489195,-9.817262649536133,0,0,28.501012802124023,1,1,1000,1000
1778782980.46042800,59644466,1,0.0009305650601163507,0.0008657807484269142,0.0009217211627401412,-0.003644132986664772,-0.00108286552131176,-9.818639755249023,0,0,28.501012802124023,1,1,760,800
1778782980.50041199,59684450,0,0.0008699651807546616,0.00075296382419765,0.0007818308658897877,-0.0006387365865521133,-0.0008275255095213652,-9.817811965942383,0,0,28.50321388244629,1,1,1000,1000
1778782980.50041199,59684450,1,0.0009826476452872157,0.001058959518559277,0.0006675430340692401,-0.003543795784935355,-0.0013478160835802555,-9.815658569335938,0,0,28.50321388244629,1,1,760,800
1778782980.54039598,59724434,0,0.0008671312825754285,0.0008151489309966564,0.0008616286795586348,-8.931079355534166e-05,-0.0008151298970915377,-9.81789493560791,0,0,28.505413055419922,1,1,1000,1000
1778782980.54039598,59724434,1,0.0007534754113294184,0.0010596627835184336,0.0009259568178094923,-0.00018572455155663192,0.0006267788121476769,-9.816141128540039,0,0,28.505413055419922,1,1,760,800
1778782980.58037996,59764418,0,0.0008078770479187369,0.0009139842004515231,0.0008902807021513581,-0.0016980062937363982,-0.0015026889741420746,-9.816335678100586,0,0,28.507612228393555,1,1,1000,1000
1778782980.58037996,59764418,1,0.0008410004083998501,0.0007109070429578424,0.0009771377081051469,-0.0008879566448740661,-0.0018444819143041968,-9.817466735839844,0,0,28.507612228393555,1,1,760,800
1778782980.62036419,59804402,0,0.0008683163905516267,0.000792016857303679,0.0007812054245732725,-0.00154695357196033,-0.0003616148605942726,-9.81645679473877,0,0,28.509811401367188,1,1,1000,1000
1778782980.62036419,59804402,1,0.0007597073563374579,0.0009738891385495663,0.0009792315540835261,-0.0006035681581124663,-0.0013804039917886257,-9.817052841186523,0,0,28.509811401367188,1,1,760,800
1778782980.66034818,59844386,0,0.0008375839679501951,0.0008657211437821388,0.0008040039101615548,-0.0011360074859112501,-0.0007080809446051717,-9.81820011138916,0,0,28.512008666992188,1,1,1000,1000
1778782980.66034818,59844386,1,0.0007841574843041599,0.00072170962812379,0.0008173758396878839,0.001837150426581502,-0.00026791333220899105,-9.818277359008789,0,0,28.512008666992188,1,1,760,800
1778782980.70033216,59884370,0,0.000850205251481384,0.0008370602154172957,0.0008393090683966875,-0.000671866990160197,-0.0009960836032405496,-9.816848754882812,0,0,28.51420783996582,1,1,1000,1000
1778782980.70033216,59884370,1,0.0007621406111866236,0.0008496656664647162,0.0010260685812681913,-0.0013284580782055855,0.0005236986326053739,-9.817645072937012,0,0,28.51420783996582,1,1,760,800
1778782980.74031615,59924354,0,0.0008142679580487311,0.0008194671245291829,0.0007793449331074953,-0.0015819675754755735,-0.0013553390745073557,-9.817927360534668,0,0,28.51640510559082,1,1,1000,1000
1778782980.74031615,59924354,1,0.0008134972304105759,0.0007984083495102823,0.0008961822604760528,0.0005660774186253548,-0.0015936506679281592,-9.817453384399414,0,0,28.51640510559082,1,1,760,800
1778782980.78030014,59964338,0,0.0008774647722020745,0.0008509230683557689,0.0008610206423327327,-0.0005500162369571626,-0.0009975014254450798,-9.817404747009277,0,0,28.518604278564453,1,1,1000,1000
1778782980.78030014,59964338,1,0.0008021218236535788,0.0008092037169262767,0.0008734987350180745,-0.002920316532254219,-0.002679873025044799,-9.81471061706543,0,0,28.518604278564453,1,1,760,800
1778782980.82028413,60004322,0,0.0008915823418647051,0.0008600782603025436,0.000851350137963891,-0.0015705678379163146,-0.0014538583345711231,-9.816946029663086,0,0,28.520801544189453,1,1,1000,1000
1778782980.82028413,60004322,1,0.0008099909173324704,0.0007723767776042223,0.0008603119640611112,-0.0006043572211638093,-0.0014385480899363756,-9.817030906677246,0,0,28.520801544189453,1,1,760,800
1778782980.86026812,60044306,0,0.0008142521837726235,0.0008490206673741341,0.000815166684333235,-0.0010084168752655387,-0.0016609176527708769,-9.816923141479492,0,0,28.522998809814453,1,1,1000,1000
1778782980.86026812,60044306,1,0.0007809956441633403,0.000928998866584152,0.0009634433081373572,-0.0016019316390156746,-0.001035966444760561,-9.816621780395508,0,0,28.522998809814453,1,1,760,800
1778782980.90025210,60084290,0,0.0008625093032605946,0.0008595231920480728,0.0008756405441090465,-0.0014789095148444176,-0.0014341266360133886,-9.81706428527832,0,0,28.525196075439453,1,1,1000,1000
1778782980.90025210,60084290,1,0.0006843217415735126,0.0008178057614713907,0.0008650784147903323,9.863172454060987e-05,-0.0011861512903124094,-9.818243980407715,0,0,28.525196075439453,1,1,760,800
1778782980.94023609,60124274,0,0.000860491709318012,0.0008359383209608495,0.0008630575612187386,-0.0014992717187851667,-0.0008243267657235265,-9.816581726074219,0,0,28.52739143371582,1,1,1000,1000
1778782980.94023609,60124274,1,0.000938481476623565,0.0008453596383333206,0.0007830385584384203,0.001206362503580749,-0.00027875302475877106,-9.821176528930664,0,0,28.52739143371582,1,1,760,800
1778782980.98022008,60164258,0,0.000853393692523241,0.0008450325112789869,0.0008520850678905845,-0.001773990923538804,-0.0012572485720738769,-9.817338943481445,0,0,28.529586791992188,1,1,1000,1000
1778782980.98022008,60164258,1,0.0008346412214450538,0.0008974328520707786,0.0007503117667511106,-0.0016889587277546525,-0.0022604865953326225,-9.816854476928711,0,0,28.529586791992188,1,1,760,800
1778782981.02020407,60204242,0,0.0008626596536487341,0.0008322095964103937,0.0008331987191922963,-0.0013435273431241512,-0.001216352335177362,-9.817527770996094,0,0,28.531782150268555,1,1,1000,1000
1778782981.02020407,60204242,1,0.0008633919060230255,0.0007817158475518227,0.0008951342897489667,0.002306542359292507,0.00034940411569550633,-9.818565368652344,0,0,28.531782150268555,1,1,760,800
1778782981.06018806,60244226,0,0.0008983773877844214,0.000816869898699224,0.0008838971261866391,-0.0010102784726768732,-0.0011593627277761698,-9.81759262084961,0,0,28.533924102783203,1,1,1000,1000
1778782981.06018806,60244226,1,0.0008082794374786317,0.0007464693626388907,0.0007945126853883266,-0.0006941520841792226,0.001232377253472805,-9.818739891052246,0,0,28.533924102783203,1,1,760,800
1778782981.10017204,60284210,0,0.0008692263509146869,0.0009156587184406817,0.0007917190669104457,-0.0005743613583035767,-0.0012476395349949598,-9.818042755126953,0,0,28.53611946105957,1,1,1000,1000
1778782981.10017204,60284210,1,0.000854660349432379,0.0008050708565860987,0.000840009015519172,-0.0009182062931358814,-0.0006588284159079194,-9.818225860595703,0,0,28.53611946105957,1,1,760,800
1778782981.14015603,60324194,0,0.0008272768463939428,0.0008882082183845341,0.0008209586958400905,-0.0018268980784341693,-0.0016230319160968065,-9.817646980285645,0,0,28.538314819335938,1,1,1000,1000
1778782981.14015603,60324194,1,0.0007203530985862017,0.0008459870587103069,0.0008447064319625497,-0.0014290516264736652,0.00035908413701690733,-9.817508697509766,0,0,28.538314819335938,1,1,760,800
1778782981.18014002,60364178,0,0.0008424798143096268,0.0008776354370638728,0.0008379996870644391,-0.0005176650010980666,-0.0006426748586818576,-9.817790985107422,0,0,28.540508270263672,1,1,1000,1000
1778782981.18014002,60364178,1,0.0008408440626226366,0.0008572580409236252,0.0008381902589462698,-0.0010632259072735906,-0.0006471400847658515,-9.815849304199219,0,0,28.540508270263672,1,1,760,800
1778782981.22012401,60404162,0,0.0008703625062480569,0.0008104259613901377,0.0008500046096742153,-0.000641807506326586,-0.0009705805568955839,-9.81853199005127,0,0,28.54270362854004,1,1,1000,1000
1778782981.22012401,60404162,1,0.0007947984850034118,0.0007327308412641287,0.0007838616147637367,-0.0030590451788157225,-0.0012301632668823004,-9.81900405883789,0,0,28.54270362854004,1,1,760,800
1778782981.26010799,60444146,0,0.0007773831021040678,0.0008806969271972775,0.0007946918485686183,-0.0013145400444045663,-0.0006506014033220708,-9.817418098449707,0,0,28.544898986816406,1,1,1000,1000
1778782981.26010799,60444146,1,0.0008111805655062199,0.0009633549489080906,0.001047690398991108,-0.00291330530308187,0.00047960737720131874,-9.815924644470215,0,0,28.544898986816406,1,1,760,800
1778782981.30009198,60484130,0,0.0008578444831073284,0.0008273936109617352,0.0008731188718229532,0.00020388010307215154,-0.0012342173140496016,-9.81761360168457,0,0,28.54709243774414,1,1,1000,1000
1778782981.30009198,60484130,1,0.000981719233095646,0.000798518827650696,0.0011250406969338655,-0.0010509778512641788,-0.0011159812565892935,-9.819742202758789,0,0,28.54709243774414,1,1,760,800
1778782981.34007597,60524114,0,0.0008489929023198783,0.000913275289349258,0.0008692903211340308,-0.00044839701149612665,-0.000617647310718894,-9.818098068237305,0,0,28.549285888671875,1,1,1000,1000
1778782981.34007597,60524114,1,0.0008814786560833454,0.0007811739342287183,0.0010349017102271318,-0.0007924867677502334,0.0003049863735213876,-9.816678047180176,0,0,28.549285888671875,1,1,760,800
1778782981.38005996,60564098,0,0.000828856136649847,0.0008506138692609966,0.0008585326140746474,-0.0016623970586806536,-0.000980107462964952,-9.81682300567627,0,0,28.55147933959961,1,1,1000,1000
1778782981.38005996,60564098,1,0.0008136198157444596,0.0007822211482562125,0.0007733152015134692,-0.0009219221537932754,-0.0030818700324743986,-9.816570281982422,0,0,28.55147933959961,1,1,760,800
1778782981.42004418,60604082,0,0.0008618065621703863,0.0008377168560400605,0.0008928495226427913,-0.002081424929201603,-0.0012164777144789696,-9.818446159362793,0,0,28.553672790527344,1,1,1000,1000
1778782981.42004418,60604082,1,0.0007762976456433535,0.0008214261033572257,0.0008769839769229293,-0.0007699639536440372,-6.258418579818681e-05,-9.817998886108398,0,0,28.553672790527344,1,1,760,800
1778782981.46002817,60644066,0,0.0009005737956613302,0.0008017793297767639,0.0008705327054485679,-0.001047054072842002,-0.0011870411690324545,-9.816764831542969,0,0,28.555919647216797,1,1,1000,1000
1778782981.46002817,60644066,1,0.0005847151624038815,0.0008484495338052511,0.00102102174423635,-0.0015888733323663473,-0.0036178776063024998,-9.815746307373047,0,0,28.555864334106445,1,1,760,800
1778782981.50001216,60684050,0,0.0008445054991170764,0.0008676178404130042,0.0008280249312520027,-0.0017310952534899116,-0.0019382559694349766,-9.816762924194336,0,0,28.5581111907959,1,1,1000,1000
1778782981.50001216,60684050,1,0.0007862329366616905,0.0006080777384340763,0.0008227287326008081,0.00016015350411180407,-0.0011249323142692447,-9.815829277038574,0,0,28.558055877685547,1,1,760,800
1778782981.53999615,60724034,0,0.0008292556740343571,0.0008940690895542502,0.0008650454110465944,-0.0011509897885844111,-0.0006538272718898952,-9.817633628845215,0,0,28.560302734375,1,1,1000,1000
1778782981.53999615,60724034,1,0.0008294827421195805,0.0007815948338247836,0.0007848520763218403,0.0010828321101143956,-0.00043448785436339676,-9.815988540649414,0,0,28.56024932861328,1,1,760,800
1778782981.58081317,60764851,0,0.0008887351723387837,0.0009170715347863734,0.0008433728362433612,-0.0010441604536026716,-0.0017519842367619276,-9.909085273742676,0,0,28.562496185302734,1,1,1000,1000
1778782981.58081317,60764851,1,0.000715206959284842,0.0007205631118267775,0.0009410143247805536,-0.0002485515724401921,-0.000770681886933744,-9.911259651184082,0,0,28.562496185302734,1,1,760,800
1778782981.62079716,60804835,0,0.0008446914725936949,0.0008431401802226901,0.0008313622674904764,-0.001331712817773223,-0.0009682881645858288,-10.438098907470703,0,0,28.564685821533203,1,1,1000,1000
1778782981.62079716,60804835,1,0.0009807402966544032,0.0008327526156790555,0.000786483462434262,0.0011831442825496197,-0.0009603453218005598,-10.436908721923828,0,0,28.564685821533203,1,1,760,800
1778782981.66078115,60844819,0,0.0008440744131803513,0.0008715980220586061,0.0008558268891647458,-0.0016194346826523542,-0.0009197206818498671,-10.422880172729492,0,0,28.566877365112305,1,1,1000,1000
1778782981.66078115,60844819,1,0.0007688913028687239,0.000945603649597615,0.0008179821306839585,-0.0011457636719569564,-0.0005383222596719861,-10.423715591430664,0,0,28.566877365112305,1,1,760,800
1778782981.70076513,60884803,0,0.0008717511664144695,0.0008519921684637666,0.0008251534309238195,-0.0018744454719126225,-0.0009405832970514894,-10.364848136901855,0,0,28.569068908691406,1,1,1000,1000
1778782981.70076513,60884803,1,0.000891540723387152,0.0008451975882053375,0.0008704062202014029,-0.0005290378467179835,-0.00020605296595022082,-10.365471839904785,0,0,28.569068908691406,1,1,760,800
1778782981.74074912,60924787,0,0.0008957604295574129,0.0008399747312068939,0.0008926558075472713,-0.0019312493968755007,-0.0019083308288827538,-10.401660919189453,0,0,28.571260452270508,1,1,1000,1000
1778782981.74074912,60924787,1,0.0008155539981089532,0.000922965060453862,0.001014026696793735,-0.0004265719617251307,-0.0011150503996759653,-10.402209281921387,0,0,28.571260452270508,1,1,760,800
1778782981.78073311,60964771,0,0.000933334231376648,0.0008438032236881554,0.00086559122428298,-0.000848298252094537,-0.0007862743223086,-10.395471572875977,0,0,28.573450088500977,1,1,1000,1000
1778782981.78073311,60964771,1,0.0009170777630060911,0.0008908099844120443,0.0008709932444617152,-0.0007488979608751833,-0.000520652043633163,-10.396871566772461,0,0,28.573450088500977,1,1,760,800
1778782981.82071710,61004755,0,0.0007978521753102541,0.0008581205038353801,0.0008265553042292595,-0.001102937152609229,-0.0005793051095679402,-10.367029190063477,0,0,28.575639724731445,1,1,1000,1000
1778782981.82071710,61004755,1,0.0009503521723672748,0.0008158364216797054,0.0008171659428626299,0.0011934245703741908,-0.00024303780810441822,-10.36689281463623,0,0,28.575639724731445,1,1,760,800
1778782981.86070108,61044739,0,0.0008586022304370999,0.0008876085630618036,0.0008931823540478945,-0.0009138773893937469,-0.0015872939256951213,-10.347785949707031,0,0,28.577829360961914,1,1,1000,1000
1778782981.86070108,61044739,1,0.0007355135167017579,0.0007562157115899026,0.0009287132415920496,-0.001040946808643639,-0.0008078319951891899,-10.350614547729492,0,0,28.577829360961914,1,1,760,800
1778782981.90068507,61084723,0,0.0008659520535729825,0.0008414818439632654,0.0008454809430986643,-0.001184016582556069,-0.0010926428949460387,-10.343740463256836,0,0,28.580018997192383,1,1,1000,1000
1778782981.90068507,61084723,1,0.0008572313818149269,0.0007820839527994394,0.0007592450128868222,-0.001172214630059898,-0.0008786451653577387,-10.341984748840332,0,0,28.580018997192383,1,1,760,800
1778782981.94066906,61124707,0,0.0008377567864954472,0.0008322239737026393,0.0009014740935526788,-0.0013312867376953363,-0.0010552960447967052,-10.34693717956543,0,0,28.58220863342285,1,1,1000,1000
1778782981.94066906,61124707,1,0.0007327637868002057,0.0008836350170895457,0.0008579263230785728,-0.0022240974940359592,-0.001944433432072401,-10.345088958740234,0,0,28.58220863342285,1,1,760,800
1778782981.98065305,61164691,0,0.0008465916616842151,0.0008768583065830171,0.0008634747355245054,-0.001005923724733293,-0.0019998950883746147,-10.354225158691406,0,0,28.584396362304688,1,1,1000,1000
1778782981.98065305,61164691,1,0.0007354789995588362,0.0008591909427195787,0.0008245032513514161,0.0020581320859491825,0.0007088842103257775,-10.35221004486084,0,0,28.584396362304688,1,1,760,800
1778782982.02063704,61204675,0,0.0008174658287316561,0.000920620746910572,0.000882122665643692,-0.0003290199674665928,-0.000773303909227252,-10.368376731872559,0,0,28.586585998535156,1,1,1000,1000
1778782982.02063704,61204675,1,0.0008886030409485102,0.0009384345030412078,0.0009501538588665426,-0.0022085150703787804,-0.0006552557460963726,-10.368982315063477,0,0,28.586585998535156,1,1,760,800
1778782982.06062102,61244659,0,0.0008696934673935175,0.0009194512385874987,0.0008788227569311857,-0.0005004387348890305,-0.0012925832998007536,-10.381263732910156,0,0,28.588773727416992,1,1,1000,1000
1778782982.06062102,61244659,1,0.0008880069945007563,0.0009574353462085128,0.0007718627457506955,-0.002804831601679325,-0.0002151573426090181,-10.38065242767334,0,0,28.588773727416992,1,1,760,800
1778782982.10060501,61284643,0,0.0008113520452752709,0.0008637545979581773,0.0007887843530625105,-0.0005263115745037794,-0.000747394748032093,-10.39974308013916,0,0,28.59096336364746,1,1,1000,1000
1778782982.10060501,61284643,1,0.0008741087513044477,0.0007699824054725468,0.0009042947785928845,0.00043427577475085855,0.0005397032364271581,-10.39649772644043,0,0,28.59096336364746,1,1,760,800
1778782982.14058900,61324627,0,0.0009242478990927339,0.0008340154308825731,0.0007698485860601068,-0.0005690890247933567,-0.00042520160786807537,-10.415803909301758,0,0,28.593151092529297,1,1,1000,1000
1778782982.14058900,61324627,1,0.0008906242437660694,0.0010249955812469125,0.0010024703806266189,0.001165852416306734,-0.001370542566291988,-10.409110069274902,0,0,28.593151092529297,1,1,760,800
1778782982.18057299,61364611,0,0.0008604739559814334,0.0008708968525752425,0.000868646427989006,-0.0008105608867481351,-0.0026065201964229345,-10.43144416809082,0,0,28.5953369140625,1,1,1000,1000
1778782982.18057299,61364611,1,0.0006949863745830953,0.0007005165098235011,0.0007405001088045537,-0.0022411728277802467,-0.0011101344134658575,-10.431398391723633,0,0,28.5953369140625,1,1,760,800
1778782982.22055697,61404595,0,0.0009066022466868162,0.0008152307127602398,0.000889672723133117,-0.0016930184792727232,-0.0011379173956811428,-10.447139739990234,0,0,28.597524642944336,1,1,1000,1000
1778782982.22055697,61404595,1,0.0010097080375999212,0.0009333093767054379,0.0008758963085711002,-0.0012074436526745558,0.0007719718269072473,-10.442973136901855,0,0,28.597524642944336,1,1,760,800
1778782982.26054096,61444579,0,-0.030461736023426056,-0.0277925506234169,0.0011050770990550518,-0.0010148526635020971,-0.0012787337182089686,-13.17739200592041,0,0,28.599712371826172,1,1,1000,1000
1778782982.26054096,61444579,1,-0.030556941404938698,-0.027857456356287003,0.0011903252452611923,-0.0007740816217847168,0.000981534831225872,-13.197898864746094,0,0,28.599712371826172,1,1,760,800
1778782982.30052519,61484563,0,-0.03292369470000267,-0.03275245055556297,0.0015288686845451593,-0.0053503080271184444,0.0037604751996695995,-15.126346588134766,0,0,28.601898193359375,1,1,1000,1000
1778782982.30052519,61484563,1,-0.032792627811431885,-0.032377611845731735,0.0015048356726765633,-0.004148141480982304,0.0018034023232758045,-15.153834342956543,0,0,28.601898193359375,1,1,760,800
1778782982.34050918,61524547,0,-0.030952969565987587,-0.029706496745347977,0.001864792313426733,-0.013392134569585323,0.012219976633787155,-14.747175216674805,0,0,28.604084014892578,1,1,1000,1000
1778782982.34050918,61524547,1,-0.031113944947719574,-0.029703252017498016,0.001815721858292818,-0.013786864466965199,0.010682130232453346,-14.766788482666016,0,0,28.604084014892578,1,1,760,800
1778782982.38049316,61564531,0,-0.02638930268585682,-0.02596808783710003,0.0021785879507660866,-0.020225906744599342,0.018705375492572784,-13.673731803894043,0,0,28.60626983642578,1,1,1000,1000
1778782982.38049316,61564531,1,-0.026292938739061356,-0.02605869434773922,0.0022468725219368935,-0.01993381604552269,0.019597254693508148,-13.685564994812012,0,0,28.60626983642578,1,1,760,800
1778782982.42047715,61604515,0,-0.021693706512451172,-0.021498240530490875,0.0022372202947735786,-0.024185504764318466,0.022569289430975914,-12.449222564697266,0,0,28.608455657958984,1,1,1000,1000
1778782982.42047715,61604515,1,-0.021714335307478905,-0.0216947253793478,0.0022604460828006268,-0.02635779418051243,0.024617573246359825,-12.457430839538574,0,0,28.608455657958984,1,1,760,800
1778782982.46046114,61644499,0,-0.01704828441143036,-0.015521813184022903,0.002274745376780629,-0.02329210937023163,0.02235545590519905,-11.299857139587402,0,0,28.610641479492188,1,1,1000,1000
1778782982.46046114,61644499,1,-0.01709548383951187,-0.015509326010942459,0.002194419037550688,-0.025052295997738838,0.021710101515054703,-11.30029582977295,0,0,28.610641479492188,1,1,760,800
1778782982.50044513,61684483,0,-0.009874709881842136,-0.01001327857375145,0.0023513997439295053,-0.018997427076101303,0.01803625002503395,-10.359743118286133,0,0,28.61282730102539,1,1,1000,1000
1778782982.50044513,61684483,1,-0.009844118729233742,-0.010051644407212734,0.0022794129326939583,-0.01929873414337635,0.01657133549451828,-10.356038093566895,0,0,28.61282730102539,1,1,760,800
1778782982.54042912,61724467,0,-0.004871414974331856,-0.0058842129074037075,0.0023749826941639185,-0.013789203017950058,0.01170823909342289,-9.696446418762207,0,0,28.61501121520996,1,1,1000,1000
1778782982.54042912,61724467,1,-0.004878126550465822,-0.005699259229004383,0.0024560687597841024,-0.015380052849650383,0.012409575283527374,-9.691898345947266,0,0,28.61501121520996,1,1,760,800
1778782982.58041310,61764451,0,-0.00014699017629027367,0.0002453780616633594,0.002302419627085328,-0.008455947041511536,0.0065442100167274475,-9.310540199279785,0,0,28.61719512939453,1,1,1000,1000
1778782982.58041310,61764451,1,-8.718930621398613e-05,4.117143544135615e-05,0.00247751222923398,-0.008939155377447605,0.009099528193473816,-9.303346633911133,0,0,28.61719512939453,1,1,760,800
1778782982.62039709,61804435,0,0.0038501655217260122,0.004403920844197273,0.002314952900633216,-0.004280843771994114,0.001377382199279964,-9.175851821899414,0,0,28.619380950927734,1,1,1000,1000
1778782982.62039709,61804435,1,0.0036425807047635317,0.004394287243485451,0.0024138253647834063,-0.0021884634625166655,0.0011776104802265763,-9.168797492980957,0,0,28.619380950927734,1,1,760,800
1778782982.66038108,61844419,0,0.0051824417896568775,0.004867023788392544,0.0022489377297461033,-0.001316196285188198,-0.0001108156648115255,-9.229669570922852,0,0,28.621562957763672,1,1,1000,1000
1778782982.66038108,61844419,1,0.005149489734321833,0.004776699468493462,0.002252611331641674,-0.0012819677358493209,-0.0006096778088249266,-9.22309684753418,0,0,28.621562957763672,1,1,760,800
1778782982.70036507,61884403,0,0.011121154762804508,0.010863200761377811,0.002160741249099374,-0.0013779879081994295,-0.0017220033332705498,-9.418292045593262,0,0,28.623748779296875,1,1,1000,1000
1778782982.70036507,61884403,1,0.010868588462471962,0.010861893184483051,0.0023095947690308094,-0.0004773086402565241,-0.0005277672316879034,-9.41169548034668,0,0,28.623748779296875,1,1,760,800
1778782982.74034905,61924387,0,0.014208185486495495,0.014390147291123867,0.0021782866679131985,5.832940587424673e-05,-0.002529527759179473,-9.672835350036621,0,0,28.625930786132812,1,1,1000,1000
1778782982.74034905,61924387,1,0.014033257029950619,0.014392834156751633,0.0021684393286705017,-0.001367823570035398,-0.0011236974969506264,-9.666484832763672,0,0,28.625930786132812,1,1,760,800
1778782982.78033304,61964371,0,0.01633971743285656,0.01613474264740944,0.001985479611903429,-0.001764256856404245,0.0003359333786647767,-9.947070121765137,0,0,28.628114700317383,1,1,1000,1000
1778782982.78033304,61964371,1,0.016286499798297882,0.016056915745139122,0.002189450431615114,0.0001687303592916578,0.0014693868579342961,-9.944498062133789,0,0,28.628114700317383,1,1,760,800
1778782982.82031703,62004355,0,0.017241066321730614,0.017066823318600655,0.0019407171057537198,-0.0025394856929779053,0.0021657380275428295,-10.204687118530273,0,0,28.63029670715332,1,1,1000,1000
1778782982.82031703,62004355,1,0.01722058840095997,0.01715320535004139,0.0018945939373224974,-0.000781122362241149,-0.0002848567673936486,-10.2027006149292,0,0,28.63029670715332,1,1,760,800
1778782982.86030102,62044339,0,0.018477950245141983,0.018236560747027397,0.0018745354609563947,-0.00495567312464118,0.00365300546400249,-10.417247772216797,0,0,28.632478713989258,1,1,1000,1000
1778782982.86030102,62044339,1,0.01841902919113636,0.018220961093902588,0.001976680476218462,-0.002957521006464958,0.0034276419319212437,-10.41503620147705,0,0,28.632478713989258,1,1,760,800
1778782982.90028501,62084323,0,0.0197893213480711,0.019533392041921616,0.0017638448625802994,-0.0067306216806173325,0.0044252341613173485,-10.60451889038086,0,0,28.634660720825195,1,1,1000,1000
1778782982.90028501,62084323,1,0.019955791532993317,0.0195046104490757,0.0017089566681534052,-0.005427839700132608,0.004123247694224119,-10.606941223144531,0,0,28.634660720825195,1,1,760,800
1778782982.94026899,62124307,0,0.02068350277841091,0.01864130049943924,0.0016651542391628027,-0.007369908504188061,0.006391421891748905,-10.701813697814941,0,0,28.636842727661133,1,1,1000,1000
1778782982.94026899,62124307,1,0.020647913217544556,0.018511857837438583,0.0017073162598535419,-0.008373469114303589,0.006838076747953892,-10.69964599609375,0,0,28.636842727661133,1,1,760,800
1778782982.98025298,62164291,0,0.017810050398111343,0.01877754181623459,0.0016280312556773424,-0.009020215831696987,0.006830718833953142,-10.776529312133789,0,0,28.63902473449707,1,1,1000,1000
1778782982.98025298,62164291,1,0.017996955662965775,0.018791362643241882,0.0015946533530950546,-0.009180144406855106,0.006399841047823429,-10.777962684631348,0,0,28.63902473449707,1,1,760,800
1778782983.02023697,62204275,0,0.01612481102347374,0.014970279298722744,0.0015804809518158436,-0.008309664204716682,0.007678966969251633,-10.818154335021973,0,0,28.641206741333008,1,1,1000,1000
1778782983.02023697,62204275,1,0.016314350068569183,0.015136681497097015,0.0017393808811903,-0.009238079190254211,0.009882023558020592,-10.818320274353027,0,0,28.641206741333008,1,1,760,800
1778782983.06022120,62244259,0,0.014655645936727524,0.012875129468739033,0.0015638971235603094,-0.008648773655295372,0.007557709701359272,-10.839442253112793,0,0,28.643386840820312,1,1,1000,1000
1778782983.06022120,62244259,1,0.0148537065833807,0.012892885133624077,0.0015719928778707981,-0.00791896227747202,0.00742796715348959,-10.840103149414062,0,0,28.643386840820312,1,1,760,800
1778782983.10020518,62284243,0,0.013371532782912254,0.011759772896766663,0.0014786922838538885,-0.009808050468564034,0.007509756833314896,-10.843403816223145,0,0,28.64556884765625,1,1,1000,1000
1778782983.10020518,62284243,1,0.013454265892505646,0.011674229055643082,0.0015006784815341234,-0.008651208132505417,0.009048300795257092,-10.843389511108398,0,0,28.64556884765625,1,1,760,800
1778782983.14018917,62324227,0,0.012249980121850967,0.010700345039367676,0.0014421893283724785,-0.008775189518928528,0.007192933466285467,-10.827034950256348,0,0,28.647693634033203,1,1,1000,1000
1778782983.14018917,62324227,1,0.01237538643181324,0.010711587965488434,0.0013823851477354765,-0.008851158432662487,0.007021722383797169,-10.826604843139648,0,0,28.647693634033203,1,1,760,800
1778782983.18017316,62364211,0,0.01143468264490366,0.010310661047697067,0.0013698986731469631,-0.009169677272439003,0.006468369625508785,-10.803173065185547,0,0,28.649873733520508,1,1,1000,1000
1778782983.18017316,62364211,1,0.011383546516299248,0.010232364758849144,0.0015220962231978774,-0.008702653460204601,0.007859205827116966,-10.805822372436523,0,0,28.649873733520508,1,1,760,800
1778782983.22015715,62404195,0,0.009684821590781212,0.00942891277372837,0.0013991944724693894,-0.009369001723825932,0.007011068519204855,-10.804311752319336,0,0,28.652053833007812,1,1,1000,1000
1778782983.22015715,62404195,1,0.009854840114712715,0.00954057089984417,0.0013881700579077005,-0.008098289370536804,0.008705285377800465,-10.80665397644043,0,0,28.652053833007812,1,1,760,800
1778782983.26014113,62444179,0,0.010302144102752209,0.00959951151162386,0.0013716592220589519,-0.009273657575249672,0.0069110943004488945,-10.804550170898438,0,0,28.654233932495117,1,1,1000,1000
1778782983.26014113,62444179,1,0.010150667279958725,0.009678405709564686,0.001394143095239997,-0.009653287008404732,0.006950725801289082,-10.80518627166748,0,0,28.654233932495117,1,1,760,800
1778782983.30012512,62484163,0,0.005581396631896496,0.00558261014521122,0.0014019410591572523,-0.009578738361597061,0.008040908724069595,-10.808212280273438,0,0,28.65641212463379,1,1,1000,1000
1778782983.30012512,62484163,1,0.00554322125390172,0.005652567371726036,0.0014773501316085458,-0.009426151402294636,0.006140177138149738,-10.80600357055664,0,0,28.65641212463379,1,1,760,800
1778782983.34010911,62524147,0,0.00994127057492733,0.009640177711844444,0.0013979569775983691,-0.008829834870994091,0.0074363513849675655,-10.808694839477539,0,0,28.658592224121094,1,1,1000,1000
1778782983.34010911,62524147,1,0.01002026442438364,0.009738188236951828,0.0016196020878851414,-0.008479544892907143,0.005481215659528971,-10.808660507202148,0,0,28.658592224121094,1,1,760,800
1778782983.38009310,62564131,0,0.004096431657671928,0.003790098475292325,0.0014139317208901048,-0.00875106081366539,0.0068370988592505455,-10.814786911010742,0,0,28.660770416259766,1,1,1000,1000
1778782983.38009310,62564131,1,0.004026874899864197,0.003852797206491232,0.0014217144344002008,-0.008343628607690334,0.0073096961714327335,-10.814621925354004,0,0,28.660770416259766,1,1,760,800
1778782983.42007709,62604115,0,0.005986737087368965,0.007643413729965687,0.0013746782205998898,-0.0091326292604208,0.006457357667386532,-10.821968078613281,0,0,28.662948608398438,1,1,1000,1000
1778782983.42007709,62604115,1,0.0057390592992305756,0.007510043680667877,0.001427158946171403,-0.011657225899398327,0.008904821239411831,-10.82248592376709,0,0,28.662948608398438,1,1,760,800
1778782983.46006107,62644099,0,0.006213759537786245,0.0018442212603986263,0.0012913828250020742,-0.008602583780884743,0.006297575309872627,-10.838311195373535,0,0,28.66512680053711,1,1,1000,1000
1778782983.46006107,62644099,1,0.006280016154050827,0.001896115718409419,0.0013307114131748676,-0.007679715286940336,0.006952028255909681,-10.837076187133789,0,0,28.66512680053711,1,1,760,800
1778782983.50004506,62684083,0,0.0025610316079109907,0.005854954943060875,0.0013266457244753838,-0.009143267758190632,0.006551789119839668,-10.852705955505371,0,0,28.66730499267578,1,1,1000,1000
1778782983.50004506,62684083,1,0.002516070380806923,0.005674117244780064,0.0012427186593413353,-0.007171626202762127,0.0036146133206784725,-10.854337692260742,0,0,28.66730499267578,1,1,760,800
1778782983.54002905,62724067,0,0.004925647750496864,0.003259312594309449,0.0014146092580631375,-0.008001296781003475,0.005129028577357531,-10.85982894897461,0,0,28.669483184814453,1,1,1000,1000
1778782983.54002905,62724067,1,0.005053781438618898,0.002975798211991787,0.0014477745862677693,-0.008820299059152603,0.007071167230606079,-10.86030387878418,0,0,28.669483184814453,1,1,760,800
1778782983.58001304,62764051,0,0.005073262844234705,0.001181483268737793,0.0013656988739967346,-0.007873895578086376,0.006045280024409294,-10.85765266418457,0,0,28.671714782714844,1,1,1000,1000
1778782983.58001304,62764051,1,0.005012830253690481,0.00140222383197397,0.0012636232422664762,-0.010022837668657303,0.005235899239778519,-10.85861873626709,0,0,28.671661376953125,1,1,760,800
1778782983.61999702,62804035,0,0.0006259236834011972,0.001192793482914567,0.0015338973607867956,-0.0068526072427630424,0.006037677638232708,-10.877449035644531,0,0,28.673891067504883,1,1,1000,1000
1778782983.61999702,62804035,1,0.0006427709595300257,0.0012014363892376423,0.0016356792766600847,-0.009143873117864132,0.006257004104554653,-10.878393173217773,0,0,28.673837661743164,1,1,760,800
1778782983.66081405,62844852,0,0.0007813124102540314,0.001187178655527532,0.0014325666707009077,-0.007357232738286257,0.0039759473875164986,-10.861411094665527,0,0,28.676067352294922,1,1,1000,1000
1778782983.66081405,62844852,1,0.0007470258278772235,0.001142722088843584,0.0016103361267596483,-0.008934788405895233,0.006368708796799183,-10.86103630065918,0,0,28.676067352294922,1,1,760,800
1778782983.70079803,62884836,0,0.0028145723044872284,0.00113633181899786,0.001565443933941424,-0.007131009362637997,0.0034055595751851797,-10.879924774169922,0,0,28.67824363708496,1,1,1000,1000
1778782983.70079803,62884836,1,0.0029104063287377357,0.001236736192367971,0.0017867310671135783,-0.00422254204750061,0.006473092827945948,-10.880708694458008,0,0,28.67824363708496,1,1,760,800
1778782983.74078202,62924820,0,0.002524576149880886,0.0011053727939724922,0.001495925011113286,-0.006301587447524071,0.0035374308936297894,-10.864008903503418,0,0,28.680419921875,1,1,1000,1000
1778782983.74078202,62924820,1,0.002451216336339712,0.0009401906281709671,0.0013475348241627216,-0.00740467244759202,0.004200383555144072,-10.864740371704102,0,0,28.680419921875,1,1,760,800
1778782983.78076601,62964804,0,-0.0004869858967140317,0.001130236079916358,0.0015497402055189013,-0.006312711630016565,0.004109746776521206,-10.877899169921875,0,0,28.68259620666504,1,1,1000,1000
1778782983.78076601,62964804,1,-0.0005969471530988812,0.0012054552789777517,0.0015268169809132814,-0.007459867745637894,0.003419693559408188,-10.877226829528809,0,0,28.68259620666504,1,1,760,800
1778782983.82075000,63004788,0,-0.0003644133685156703,0.001139713916927576,0.0016022417694330215,-0.006104679778218269,0.0041577983647584915,-10.86015510559082,0,0,28.684772491455078,1,1,1000,1000
1778782983.82075000,63004788,1,-0.0003297890070825815,0.0010124747641384602,0.001446140930056572,-0.009398451074957848,0.0016267512692138553,-10.861133575439453,0,0,28.684772491455078,1,1,760,800
1778782983.86073399,63044772,0,-0.00024054376990534365,-0.0015525487251579762,0.0015096931019797921,-0.006580065004527569,0.00297161634080112,-10.873847961425781,0,0,28.686946868896484,1,1,1000,1000
1778782983.86073399,63044772,1,-0.00011676012945827097,-0.0015989248640835285,0.0016038388712331653,-0.006064582150429487,0.005903537850826979,-10.872696876525879,0,0,28.686946868896484,1,1,760,800
1778782983.90071797,63084756,0,-0.00010261344141326845,-0.0015850791241973639,0.00149663002230227,-0.004319626837968826,0.0025308348704129457,-10.856376647949219,0,0,28.68912124633789,1,1,1000,1000
1778782983.90071797,63084756,1,-0.00021971247042529285,-0.0016230884939432144,0.0015308393631130457,-0.0073563833720982075,0.0028373836539685726,-10.85561752319336,0,0,28.68912124633789,1,1,760,800
1778782983.94070196,63124740,0,-5.6772364587232e-07,0.0007475368329323828,0.0016046923119574785,-0.005274774972349405,0.003427013522014022,-10.86274528503418,0,0,28.691295623779297,1,1,1000,1000
1778782983.94070196,63124740,1,0.00010670982010196894,0.0007510370924137533,0.0015932228416204453,-0.002956514712423086,0.0025483614299446344,-10.864493370056152,0,0,28.691295623779297,1,1,760,800
1778782983.98068619,63164724,0,-0.0002545656752772629,-0.0010527007980272174,0.0017292582197114825,-0.005432880483567715,0.0016641239635646343,-10.798361778259277,0,0,28.693470001220703,1,1,1000,1000
1778782983.98068619,63164724,1,-0.00020267946820240468,-0.0010285044554620981,0.0018054450629279017,-0.0022746650502085686,0.002906352747231722,-10.798977851867676,0,0,28.693470001220703,1,1,760,800
1778782984.02067018,63204708,0,-0.0007847575470805168,-0.000987041275948286,0.0016848095692694187,-0.005374859552830458,0.0014427888672798872,-10.695648193359375,0,0,28.69564437866211,1,1,1000,1000
1778782984.02067018,63204708,1,-0.0007599698146805167,-0.000933934235945344,0.0017459228402003646,-0.005395334213972092,0.0007737013511359692,-10.696861267089844,0,0,28.69564437866211,1,1,760,800
1778782984.06065416,63244692,0,-0.0015171758132055402,-0.00013308512279763818,0.0016508990665897727,-0.003925024066120386,0.0005331456195563078,-10.58829116821289,0,0,28.697818756103516,1,1,1000,1000
1778782984.06065416,63244692,1,-0.0016148033319041133,-0.0002333433658350259,0.0017514713108539581,-0.003681363770738244,-0.0005243917694315314,-10.589311599731445,0,0,28.697818756103516,1,1,760,800
1778782984.10063815,63284676,0,-0.0022573296446353197,0.00026714563136920333,0.0015940619632601738,-0.0040370626375079155,0.0008697091834619641,-10.49011516571045,0,0,28.69999122619629,1,1,1000,1000
1778782984.10063815,63284676,1,-0.0021019235718995333,0.00020690634846687317,0.0015211275313049555,-0.0035966159775853157,0.0028812263626605272,-10.489577293395996,0,0,28.69999122619629,1,1,760,800
1778782984.14062214,63324660,0,-0.0018777977675199509,0.00035734218545258045,0.001565154641866684,-0.003001189325004816,0.0009987140074372292,-10.400152206420898,0,0,28.702165603637695,1,1,1000,1000
1778782984.14062214,63324660,1,-0.0018705634865909815,0.0004277076805010438,0.0014471353497356176,-0.005151121411472559,0.0007871726411394775,-10.401832580566406,0,0,28.702165603637695,1,1,760,800
1778782984.18060613,63364644,0,-0.0025303885340690613,-0.000516334141138941,0.0014423227403312922,-0.003432443831115961,-0.0006171449786052108,-10.316950798034668,0,0,28.70433807373047,1,1,1000,1000
1778782984.18060613,63364644,1,-0.0025832916144281626,-0.0005446714349091053,0.0014745824737474322,-0.0040963683277368546,-0.0028025947976857424,-10.316129684448242,0,0,28.70433807373047,1,1,760,800
1778782984.22059011,63404628,0,-0.003899609437212348,-0.000348780769854784,0.001357855275273323,-0.0016890092520043254,3.179448685841635e-05,-10.240299224853516,0,0,28.706510543823242,1,1,1000,1000
1778782984.22059011,63404628,1,-0.003907341044396162,-0.0002873868215829134,0.0015560993924736977,-0.003131435252726078,0.0006865193136036396,-10.237950325012207,0,0,28.706510543823242,1,1,760,800
1778782984.26057410,63444612,0,-0.003417443484067917,-0.0011081504635512829,0.0013099975185468793,-0.0019160916563123465,-0.0005942527204751968,-10.166491508483887,0,0,28.708683013916016,1,1,1000,1000
1778782984.26057410,63444612,1,-0.003429719479754567,-0.0010034145088866353,0.0013933663722127676,-0.003389202058315277,-0.0003785447624977678,-10.170269012451172,0,0,28.708683013916016,1,1,760,800
1778782984.30055809,63484596,0,-0.003179557854309678,-0.0010494206799194217,0.001247264677658677,-0.002308283466845751,-0.001221782760694623,-10.10673713684082,0,0,28.71085548400879,1,1,1000,1000
1778782984.30055809,63484596,1,-0.0031118295155465603,-0.0011367236729711294,0.0012857196852564812,-0.0017647773493081331,-0.000780233705881983,-10.10590648651123,0,0,28.71085548400879,1,1,760,800
1778782984.34054208,63524580,0,-0.0027230402920395136,-0.001783066662028432,0.0012235876638442278,-0.0016424014465883374,-0.0014829195570200682,-10.048102378845215,0,0,28.713027954101562,1,1,1000,1000
1778782984.34054208,63524580,1,-0.0027707836125046015,-0.0018198948819190264,0.0013895503943786025,-0.003448884468525648,-0.0001161825202871114,-10.046725273132324,0,0,28.713027954101562,1,1,760,800
1778782984.38052607,63564564,0,-0.0030643194913864136,-0.0009002858423627913,0.0011232815450057387,-0.0011719104368239641,-0.001403281232342124,-10.000507354736328,0,0,28.715198516845703,1,1,1000,1000
1778782984.38052607,63564564,1,-0.0030602177139371634,-0.0008491307962685823,0.0010257253888994455,-0.002944092033430934,0.00021411152556538582,-10.00326156616211,0,0,28.715198516845703,1,1,760,800
1778782984.42051005,63604548,0,-0.0032350486144423485,-0.0017853087047114968,0.0010466747917234898,-0.00036818766966462135,-0.0032455860637128353,-9.951818466186523,0,0,28.717369079589844,1,1,1000,1000
1778782984.42051005,63604548,1,-0.003251400077715516,-0.0019044065847992897,0.0010355983395129442,0.0020789813715964556,-0.0005552078364416957,-9.952476501464844,0,0,28.717369079589844,1,1,760,800
1778782984.46049404,63644532,0,-0.0024899370037019253,-0.00396329490467906,0.0009346611914224923,0.00043403677409514785,-0.0028715855441987514,-9.906328201293945,0,0,28.719541549682617,1,1,1000,1000
1778782984.46049404,63644532,1,-0.0025999820791184902,-0.003877182025462389,0.0009705116390250623,-0.0022734864614903927,-0.0030531971715390682,-9.907730102539062,0,0,28.719541549682617,1,1,760,800
1778782984.50047803,63684516,0,-0.003877241862937808,-0.000966778548900038,0.0008332961006090045,-0.001325111137703061,-0.002281665802001953,-9.873438835144043,0,0,28.721710205078125,1,1,1000,1000
1778782984.50047803,63684516,1,-0.003788685891777277,-0.0010157281067222357,0.0008054909994825721,-0.0005467938026413321,-0.0025423283223062754,-9.875356674194336,0,0,28.721710205078125,1,1,760,800
1778782984.54046202,63724500,0,4.4624230213230476e-05,-0.0015893930103629827,0.0005578319542109966,-0.0007817526930011809,-0.0023353786673396826,-9.846757888793945,0,0,28.723880767822266,1,1,1000,1000
1778782984.54046202,63724500,1,5.496023368323222e-05,-0.0013849406968802214,0.0004991901805624366,-0.000470517436042428,-0.0033902358263731003,-9.845375061035156,0,0,28.723880767822266,1,1,760,800
1778782984.58044600,63764484,0,-0.0018876043614000082,0.0009488060604780912,0.0004159721138421446,0.0004356222343631089,-0.0028759059496223927,-9.822690963745117,0,0,28.726051330566406,1,1,1000,1000
1778782984.58044600,63764484,1,-0.0017990206833928823,0.0009257314377464354,0.00036797928623855114,6.07067922828719e-05,-0.0029600674752146006,-9.822880744934082,0,0,28.726051330566406,1,1,760,800
1778782984.62042999,63804468,0,-0.00020457012578845024,-0.00179342704359442,0.0002055085642496124,-0.0005492266500368714,-0.0021189353428781033,-9.799317359924316,0,0,28.728219985961914,1,1,1000,1000
1778782984.62042999,63804468,1,-0.00024230385315604508,-0.00201125955209136,0.000201023809495382,-0.001219797763042152,-0.0008376446785405278,-9.799016952514648,0,0,28.728219985961914,1,1,760,800
1778782984.66041398,63844452,0,-0.0011114096269011497,-0.0009532945696264505,-3.2259064028039575e-05,-0.00045091265928931534,-0.004157341551035643,-9.781466484069824,0,0,28.730390548706055,1,1,1000,1000
1778782984.66041398,63844452,1,-0.0012224919628351927,-0.0010696672834455967,-5.728164978791028e-05,0.0013029943220317364,-0.003194416407495737,-9.781967163085938,0,0,28.730390548706055,1,1,760,800
1778782984.70039797,63884436,0,0.0001240307610714808,0.00037287481245584786,-0.00029451458249241114,-0.0003385183517821133,-0.0032540769316256046,-9.764837265014648,0,0,28.732559204101562,1,1,1000,1000
1778782984.70039797,63884436,1,-6.140086043160409e-05,0.00033619877649471164,-6.135719013400376e-05,-0.001193503150716424,-0.0018121249740943313,-9.769120216369629,0,0,28.732559204101562,1,1,760,800
1778782984.74038219,63924420,0,-0.00018133808043785393,0.0006536739529110491,-0.0003587566316127777,-5.8707337302621454e-05,-0.0029599128756672144,-9.754155158996582,0,0,28.73472785949707,1,1,1000,1000
1778782984.74038219,63924420,1,-0.00010836993169505149,0.0005555512034334242,-0.0004943013191223145,-0.001184134278446436,-0.004370580427348614,-9.753281593322754,0,0,28.73472785949707,1,1,760,800
1778782984.78036618,63964404,0,-0.0015789249446243048,-0.0010317921405658126,-0.0007726873736828566,-0.00047321838792413473,-0.0011548951733857393,-9.740785598754883,0,0,28.736896514892578,1,1,1000,1000
1778782984.78036618,63964404,1,-0.0016268473118543625,-0.0009955596178770065,-0.000981722492724657,-0.001721527660265565,-0.0025473590940237045,-9.7406644821167,0,0,28.736896514892578,1,1,760,800
1778782984.82035017,64004388,0,-0.0012494588736444712,-0.004771080333739519,-0.0008470617467537522,-5.0193593779113144e-05,-0.003348564961925149,-9.73531723022461,0,0,28.739065170288086,1,1,1000,1000
1778782984.82035017,64004388,1,-0.0012902466114610434,-0.0049484968185424805,-0.0010130476439371705,0.0026157801039516926,-0.0026059867814183235,-9.736715316772461,0,0,28.739065170288086,1,1,760,800
1778782984.86033416,64044372,0,-0.002732472028583288,-0.004016701132059097,-0.0007050805725157261,0.00049149728147313,-0.0036526434123516083,-9.731178283691406,0,0,28.741233825683594,1,1,1000,1000
1778782984.86033416,64044372,1,-0.0027181890327483416,-0.003925338387489319,-0.0007253615185618401,-0.0006026393384672701,-0.0036395234055817127,-9.732144355773926,0,0,28.741233825683594,1,1,760,800
1778782984.90031815,64084356,0,-0.0031952925492078066,-0.0035182740539312363,-0.0009739206871017814,0.0014074572827666998,-0.0030492302030324936,-9.727228164672852,0,0,28.74340057373047,1,1,1000,1000
1778782984.90031815,64084356,1,-0.0031422115862369537,-0.00354205584153533,-0.0008348206174559891,0.0005921287811361253,-0.004112565889954567,-9.728899002075195,0,0,28.74340057373047,1,1,760,800
1778782984.94030213,64124340,0,-0.002325580455362797,-0.0030725165270268917,-0.0012958208099007607,0.0008238776354119182,-0.004302225075662136,-9.727058410644531,0,0,28.745567321777344,1,1,1000,1000
1778782984.94030213,64124340,1,-0.002388498978689313,-0.0030773186590522528,-0.0013646422885358334,0.002255657222121954,-0.0008243821212090552,-9.727564811706543,0,0,28.745567321777344,1,1,760,800
1778782984.98028612,64164324,0,-0.0010530324652791023,-0.0018065483309328556,-0.0016343597089871764,0.002564204391092062,-0.002683892147615552,-9.719202995300293,0,0,28.74773406982422,1,1,1000,1000
1778782984.98028612,64164324,1,-0.0012496609706431627,-0.0015770219033583999,-0.0017143937293440104,-0.0012377677485346794,-0.0061146048828959465,-9.719740867614746,0,0,28.74773406982422,1,1,760,800
1778782985.02027011,64204308,0,-0.00095229537691921,-0.0007716828258708119,-0.0018220582278445363,0.0009871915681287646,-0.0024447429459542036,-9.719030380249023,0,0,28.749902725219727,1,1,1000,1000
1778782985.02027011,64204308,1,-0.001063480507582426,-0.0002898907696362585,-0.001824003760702908,-2.6124098440050147e-05,-0.005533650051802397,-9.718852043151855,0,0,28.749902725219727,1,1,760,800
1778782985.06025410,64244292,0,-0.0007377158617600799,1.7474012565799057e-06,-0.002148878760635853,-0.00012217492621857673,-0.003139487002044916,-9.722577095031738,0,0,28.75206756591797,1,1,1000,1000
1778782985.06025410,64244292,1,-0.0008149103377945721,0.0001673665246926248,-0.002024632878601551,-0.0006584061775356531,-0.005203208886086941,-9.72303581237793,0,0,28.75206756591797,1,1,760,800
1778782985.10023808,64284276,0,1.45690228237072e-05,0.0016186737921088934,-0.0023685407359153032,2.394018338236492e-05,-0.003019715193659067,-9.727343559265137,0,0,28.754234313964844,1,1,1000,1000
1778782985.10023808,64284276,1,-2.008277442655526e-05,0.0018644608790054917,-0.0023829250130802393,0.002183486707508564,-0.002099112141877413,-9.726789474487305,0,0,28.754234313964844,1,1,760,800
1778782985.14022207,64324260,0,0.0016937927575781941,0.002047113375738263,-0.0022153430618345737,0.0010584653355181217,-0.002953474409878254,-9.735719680786133,0,0,28.75640106201172,1,1,1000,1000
1778782985.14022207,64324260,1,0.0016724729212000966,0.0019111260771751404,-0.0021043443121016026,0.00028122978983446956,-0.006782228127121925,-9.732687950134277,0,0,28.75640106201172,1,1,760,800
1778782985.18020606,64364244,0,0.0023002210073173046,0.002838735468685627,-0.0020503937266767025,0.0005694429855793715,-0.0036953503731638193,-9.735086441040039,0,0,28.75856590270996,1,1,1000,1000
1778782985.18020606,64364244,1,0.00217018136754632,0.002783021656796336,-0.002159151015803218,0.0011028496082872152,-0.0038226412143558264,-9.735936164855957,0,0,28.75856590270996,1,1,760,800
1778782985.22019005,64404228,0,0.0017626560293138027,0.0028257998637855053,-0.0018613733118399978,-1.0175283023272641e-05,-0.003801867598667741,-9.74433708190918,0,0,28.760677337646484,1,1,1000,1000
1778782985.22019005,64404228,1,0.0017448338912799954,0.0026298316661268473,-0.001777233206667006,0.0014152969233691692,-0.0032844622619450092,-9.744064331054688,0,0,28.760677337646484,1,1,760,800
1778782985.26017404,64444212,0,0.00045125940232537687,0.0002315299934707582,-0.0018910132348537445,0.00027034152299165726,-0.002943722065538168,-9.747370719909668,0,0,28.762842178344727,1,1,1000,1000
1778782985.26017404,64444212,1,0.0005115042440593243,0.0004525957629084587,-0.0020439699292182922,0.0003911804233212024,-0.0009840731509029865,-9.746659278869629,0,0,28.762842178344727,1,1,760,800
