timestamp,TimeUS,I,GyrX,GyrY,GyrZ,AccX,AccY,AccZ,EG,EA,T,GH,AH,GHz,AHz
1778782185.06005621,68245191,0,0.0010167440632358193,0.0009288904839195311,0.0009430883219465613,-0.0005566106410697103,-0.0017835107864812016,-9.81635856628418,0,0,28.967269897460938,1,1,1000,1000
1778782185.06005621,68245191,1,0.0010713479714468122,0.0009125382057391107,0.0009646255057305098,-0.0006270866142585874,-0.0009066059719771147,-9.816941261291504,0,0,28.967269897460938,1,1,760,800
1778782185.10004020,68285175,0,0.0009269526926800609,0.0010278507834300399,0.0009967188816517591,0.00014047724835108966,-0.001075947773642838,-9.817687034606934,0,0,28.969406127929688,1,1,1000,1000
1778782185.10004020,68285175,1,0.0008026814321056008,0.0008571604266762733,0.0009747815784066916,-0.003368407255038619,-0.002093292074277997,-9.815813064575195,0,0,28.969406127929688,1,1,760,800
1778782185.14002419,68325159,0,0.0009292520699091256,0.0009313445189036429,0.0010488132247701287,-0.0007470836280845106,-0.0008420448866672814,-9.817700386047363,0,0,28.97154426574707,1,1,1000,1000
1778782185.14002419,68325159,1,0.0009966825600713491,0.0010021745692938566,0.000929417903535068,0.0023398036137223244,-0.000648438697680831,-9.817811012268066,0,0,28.97154426574707,1,1,760,800
1778782185.18000817,68365143,0,0.0009796759113669395,0.0009631673456169665,0.0009061958407983184,-0.0013975795591250062,-0.00013076062896288931,-9.81652545928955,0,0,28.973682403564453,1,1,1000,1000
1778782185.18000817,68365143,1,0.0007794360863044858,0.000907413603272289,0.0010663364082574844,-0.0005431720637716353,-0.0006474463152699172,-9.815536499023438,0,0,28.973682403564453,1,1,760,800
1778782185.21999216,68405127,0,0.0009919030126184225,0.0009314038325101137,0.0009932953398674726,-0.00023331298143602908,-0.0005399534711614251,-9.817441940307617,0,0,28.975818634033203,1,1,1000,1000
1778782185.21999216,68405127,1,0.000929716567043215,0.0009519566665403545,0.0014637907734140754,-0.002718981122598052,-0.0018506936030462384,-9.817462921142578,0,0,28.975818634033203,1,1,760,800
1778782185.25997615,68445111,0,0.0009382917196489871,0.0009764829301275313,0.0009323991253040731,-0.0007896761526353657,-0.0020165788009762764,-9.81672477722168,0,0,28.977954864501953,1,1,1000,1000
1778782185.25997615,68445111,1,0.0012025635223835707,0.0008314242586493492,0.0006661394727416337,0.0005855793133378029,-0.0010608459124341607,-9.81966781616211,0,0,28.977954864501953,1,1,760,800
1778782185.29996014,68485095,0,0.0009305819403380156,0.0010174931958317757,0.0010384890483692288,-0.00017319789913017303,-0.00018818789976648986,-9.816143989562988,0,0,28.980091094970703,1,1,1000,1000
1778782185.29996014,68485095,1,0.0009064607438631356,0.0011632335372269154,0.000901182065717876,-0.0022340668365359306,-0.0003524239582475275,-9.816535949707031,0,0,28.980091094970703,1,1,760,800
1778782185.33994412,68525079,0,0.0009194340091198683,0.0009522274485789239,0.0009437653352506459,-0.0016205727588385344,-0.0017704839119687676,-9.817145347595215,0,0,28.982227325439453,1,1,1000,1000
1778782185.33994412,68525079,1,0.0009367497987113893,0.0008334041340276599,0.0006718640797771513,-0.0006455967668443918,-0.0003532338887453079,-9.816749572753906,0,0,28.982227325439453,1,1,760,800
1778782185.37992811,68565063,0,0.0009470269433222711,0.0009749979944899678,0.0009961473988369107,-0.0004573655314743519,-0.0009392548818141222,-9.816435813903809,0,0,28.98441505432129,1,1,1000,1000
1778782185.37992811,68565063,1,0.000819446868263185,0.0010734960669651628,0.000957254902459681,-9.919505100697279e-05,-0.0017255623824894428,-9.81566047668457,0,0,28.98441505432129,1,1,760,800
1778782185.41991210,68605047,0,0.000993030029349029,0.0009868761990219355,0.0010131988674402237,-0.0009371495107188821,-0.00018580393225420266,-9.818270683288574,0,0,28.98655128479004,1,1,1000,1000
1778782185.41991210,68605047,1,0.0010062652872875333,0.0009530907846055925,0.0008642655448056757,0.0004794232954736799,-0.0038584652356803417,-9.816730499267578,0,0,28.98655128479004,1,1,760,800
1778782185.45989609,68645031,0,0.0009596855961717665,0.0009659465285949409,0.0010031127603724599,-0.0012722352985292673,-0.001261651748791337,-9.817062377929688,0,0,28.988685607910156,1,1,1000,1000
1778782185.45989609,68645031,1,0.0009536055731587112,0.00098033482208848,0.0009569068788550794,-0.002591652562841773,-0.0016436040168628097,-9.814229965209961,0,0,28.988685607910156,1,1,760,800
1778782185.49988008,68685015,0,0.0010097997728735209,0.0010691010393202305,0.0009662546217441559,-0.0012857711408287287,-0.0006662564119324088,-9.817819595336914,0,0,28.990819931030273,1,1,1000,1000
1778782185.49988008,68685015,1,0.001072758692316711,0.0007584640989080071,0.0009496592683717608,-0.00234278105199337,-0.002878667786717415,-9.819697380065918,0,0,28.990819931030273,1,1,760,800
1778782185.53986406,68724999,0,0.0009577472810633481,0.0009494349360466003,0.0009531796677038074,-0.0005033835768699646,0.00024369615130126476,-9.817218780517578,0,0,28.992902755737305,1,1,1000,1000
1778782185.53986406,68724999,1,0.0010743647580966353,0.0008772140135988593,0.0010284828022122383,-0.0005110030760988593,-0.0024948283098638058,-9.817758560180664,0,0,28.992902755737305,1,1,760,800
1778782185.57984805,68764983,0,0.0009569289395585656,0.0009953496046364307,0.000944192404858768,-0.001257717376574874,-0.0018117001745849848,-9.817431449890137,0,0,28.99503517150879,1,1,1000,1000
1778782185.57984805,68764983,1,0.0011365601094439626,0.0010216591181233525,0.0011780626373365521,-0.0023969002068042755,0.0003037875285372138,-9.818315505981445,0,0,28.99503517150879,1,1,760,800
1778782185.61983204,68804967,0,0.0009473313111811876,0.0010108489077538252,0.0010650221956893802,-0.001411154866218567,-0.0013068423140794039,-9.818746566772461,0,0,28.997169494628906,1,1,1000,1000
1778782185.61983204,68804967,1,0.0008941743290051818,0.0007010925328359008,0.000899115577340126,-0.0012863584561273456,-0.00024145303177647293,-9.818619728088379,0,0,28.997169494628906,1,1,760,800
1778782185.65981603,68844951,0,0.0009047393104992807,0.0008997407276183367,0.0010169936576858163,-0.0013805112103000283,-2.530822530388832e-05,-9.817536354064941,0,0,28.999303817749023,1,1,1000,1000
1778782185.65981603,68844951,1,0.001160401152446866,0.001196577912196517,0.0008588517084717751,-0.0003452954115346074,0.002456468064337969,-9.819339752197266,0,0,28.999303817749023,1,1,760,800
1778782185.69980001,68884935,0,0.0010401175823062658,0.0009409550111740828,0.0010582620743662119,-0.00024966985802166164,-0.0006507121142931283,-9.819687843322754,0,0,29.001436233520508,1,1,1000,1000
1778782185.69980001,68884935,1,0.0010535833425819874,0.0009750569006428123,0.0010548471473157406,0.00017906188440974802,-0.002134129870682955,-9.817906379699707,0,0,29.001436233520508,1,1,760,800
1778782185.73978400,68924919,0,0.0009427173645235598,0.0009353901259601116,0.0009438558481633663,-0.0014905063435435295,-0.0021138216834515333,-9.818645477294922,0,0,29.003570556640625,1,1,1000,1000
1778782185.73978400,68924919,1,0.0009672775049693882,0.001103825168684125,0.0012659084750339389,-0.0005097466055303812,-0.0011251000687479973,-9.817235946655273,0,0,29.003570556640625,1,1,760,800
1778782185.77976823,68964903,0,0.0009207827388308942,0.0009934717090800405,0.0009558337042108178,-0.0011359468335285783,-0.0009328768937848508,-9.817816734313965,0,0,29.00570297241211,1,1,1000,1000
1778782185.77976823,68964903,1,0.0009190638083964586,0.0009334057685919106,0.0009571093833073974,0.002802085131406784,-0.001552759320475161,-9.818029403686523,0,0,29.00570297241211,1,1,760,800
1778782185.81975222,69004887,0,0.0009587837848812342,0.0008918792009353638,0.0009305589483119547,-0.0012747414875775576,-0.001516391639597714,-9.817944526672363,0,0,29.007835388183594,1,1,1000,1000
1778782185.81975222,69004887,1,0.000845036469399929,0.0008864981937222183,0.0008886178256943822,-0.0031484002247452736,-0.0023118031676858664,-9.816265106201172,0,0,29.007835388183594,1,1,760,800
1778782185.85973620,69044871,0,0.0010197458323091269,0.0009905716869980097,0.0010292138904333115,-0.0020110681653022766,-0.0011921327095478773,-9.817174911499023,0,0,29.009967803955078,1,1,1000,1000
1778782185.85973620,69044871,1,0.0010686228051781654,0.0009230384603142738,0.0009201338980346918,-0.0016350243240594864,0.0010113132884725928,-9.815571784973145,0,0,29.009967803955078,1,1,760,800
1778782185.89972019,69084855,0,0.0009672842570580542,0.000913547002710402,0.0009780758991837502,-0.0007225553854368627,-0.0009518585866317153,-9.816997528076172,0,0,29.012100219726562,1,1,1000,1000
1778782185.89972019,69084855,1,0.001116544590331614,0.0009457903215661645,0.0009833177318796515,-0.0017289654351770878,-0.0003865935141220689,-9.818964004516602,0,0,29.012100219726562,1,1,760,800
1778782185.93970418,69124839,0,0.0009636262548156083,0.0010233009234070778,0.0009369570179842412,-0.001689522061496973,-0.001035394030623138,-9.817608833312988,0,0,29.014230728149414,1,1,1000,1000
1778782185.93970418,69124839,1,0.000968659995123744,0.0008036926155909896,0.0009160907356999815,0.00022680783877149224,-2.1440275304485112e-05,-9.815686225891113,0,0,29.014230728149414,1,1,760,800
1778782185.97968817,69164823,0,0.0010197337251156569,0.0009312198380939662,0.0010142686078324914,-0.0014530159533023834,-0.0017950042383745313,-9.817153930664062,0,0,29.016361236572266,1,1,1000,1000
1778782185.97968817,69164823,1,0.0007718629203736782,0.000942167651373893,0.0009497212013229728,-0.0011426546843722463,-0.0015680514043197036,-9.818090438842773,0,0,29.016361236572266,1,1,760,800
1778782186.01967216,69204807,0,0.0009337732335552573,0.0010334855178371072,0.0009473214740864933,-0.0010305632604286075,-0.0017918606754392385,-9.817591667175293,0,0,29.01849365234375,1,1,1000,1000
1778782186.01967216,69204807,1,0.0010000243782997131,0.0010073285084217787,0.0009097661240957677,-0.00176241563167423,-0.0002619775477796793,-9.819931030273438,0,0,29.01849365234375,1,1,760,800
1778782186.05965614,69244791,0,0.0009711067541502416,0.0009678846108727157,0.0010294661624357104,-0.0012257599737495184,-0.0007497326005250216,-9.818412780761719,0,0,29.02062225341797,1,1,1000,1000
1778782186.05965614,69244791,1,0.000950804736930877,0.0009072974207811058,0.0007021973142400384,-0.002988473977893591,-0.00017998817202169448,-9.816689491271973,0,0,29.02062225341797,1,1,760,800
1778782186.09964013,69284775,0,0.0009735104395076632,0.0010274251690134406,0.0009539345046505332,-0.0006639911443926394,-0.001138853607699275,-9.8180570602417,0,0,29.022754669189453,1,1,1000,1000
1778782186.09964013,69284775,1,0.0010332257952541113,0.000859311141539365,0.0010379672748968005,0.0006029476644471288,-0.0004941052757203579,-9.817559242248535,0,0,29.022754669189453,1,1,760,800
1778782186.13962412,69324759,0,0.0009779806714504957,0.0009798251558095217,0.0010763261234387755,-0.0014603737508878112,-0.0011304913787171245,-9.816576957702637,0,0,29.024885177612305,1,1,1000,1000
1778782186.13962412,69324759,1,0.0009757953812368214,0.0010318370768800378,0.001185510540381074,-0.002488940255716443,-0.0003854020033031702,-9.815902709960938,0,0,29.024885177612305,1,1,760,800
1778782186.17960811,69364743,0,0.0009259932558052242,0.0009127767407335341,0.0009995006257668138,-0.0005884417332708836,-0.0014642809983342886,-9.817058563232422,0,0,29.027013778686523,1,1,1000,1000
1778782186.17960811,69364743,1,0.0008338416228070855,0.0009213827433995903,0.0008594493847340345,-0.0019313010852783918,-0.0010613023769110441,-9.81549072265625,0,0,29.027013778686523,1,1,760,800
1778782186.21959209,69404727,0,0.000964024686254561,0.0009651181753724813,0.0009401473798789084,-0.0015583733329549432,-0.0003650040307547897,-9.81637191772461,0,0,29.029144287109375,1,1,1000,1000
1778782186.21959209,69404727,1,0.0009795904625207186,0.001074960920959711,0.0008853693725541234,-0.0028387263882905245,-0.0007741039735265076,-9.8201265335083,0,0,29.029144287109375,1,1,760,800
1778782186.25957608,69444711,0,0.0010148199507966638,0.0009515249403193593,0.0010594656923785806,-0.001580187352374196,-0.0013572530588135123,-9.817253112792969,0,0,29.031272888183594,1,1,1000,1000
1778782186.25957608,69444711,1,0.001000362797640264,0.0010817651636898518,0.0007665245793759823,-0.0003366176679264754,-0.0009025469189509749,-9.816654205322266,0,0,29.031272888183594,1,1,760,800
1778782186.29956007,69484695,0,0.0010171713074669242,0.0009952313266694546,0.0009591958951205015,-0.001138016115874052,-0.0009621686185710132,-9.817425727844238,0,0,29.033401489257812,1,1,1000,1000
1778782186.29956007,69484695,1,0.0009839030681177974,0.0009702467359602451,0.0013673005159944296,-0.0018276483751833439,-0.005735061597079039,-9.815752029418945,0,0,29.033401489257812,1,1,760,800
1778782186.33954406,69524679,0,0.0010045028757303953,0.0009327800944447517,0.0009720590896904469,-0.0011984771117568016,-0.0010602421825751662,-9.81684684753418,0,0,29.03553009033203,1,1,1000,1000
1778782186.33954406,69524679,1,0.0009601535275578499,0.0010096286423504353,0.0010768519714474678,0.0008950313786044717,-0.0009278593934141099,-9.818052291870117,0,0,29.03553009033203,1,1,760,800
1778782186.37952805,69564663,0,0.0010198411764577031,0.0010069385170936584,0.0009242857340723276,-0.00014288707461673766,-0.0019542963709682226,-9.817512512207031,0,0,29.03765869140625,1,1,1000,1000
1778782186.37952805,69564663,1,0.0009380172705277801,0.0009796821977943182,0.0011245760833844543,0.0004717628180515021,-0.0010010983096435666,-9.816959381103516,0,0,29.03765869140625,1,1,760,800
1778782186.41951203,69604647,0,0.0009475692640990019,0.000936598633415997,0.0011047759326174855,-0.0007472469005733728,-0.0008746411767788231,-9.818294525146484,0,0,29.03978729248047,1,1,1000,1000
1778782186.41951203,69604647,1,0.0011969098122790456,0.000987921841442585,0.0008009156445041299,-0.0011286406079307199,0.0010332314996048808,-9.81778621673584,0,0,29.03978729248047,1,1,760,800
1778782186.45949602,69644631,0,0.0010351322125643492,0.0010007410310208797,0.0010433101560920477,-0.0009192056604661047,-0.0012606724631041288,-9.817028999328613,0,0,29.041915893554688,1,1,1000,1000
1778782186.45949602,69644631,1,0.0009151157573796809,0.0009757218649610877,0.0010396032594144344,-0.002103856299072504,-0.0009844859596341848,-9.816585540771484,0,0,29.041915893554688,1,1,760,800
1778782186.49948001,69684615,0,0.0009584454819560051,0.0009409650228917599,0.00088172109099105,-0.0008268571691587567,-0.0009850587230175734,-9.817087173461914,0,0,29.044042587280273,1,1,1000,1000
1778782186.49948001,69684615,1,0.000977513031102717,0.0011416010092943907,0.0011346419341862202,-0.0016176679637283087,-0.0006123092607595026,-9.817587852478027,0,0,29.044042587280273,1,1,760,800
1778782186.53946400,69724599,0,0.0009880047291517258,0.0009664521785452962,0.0009933947585523129,-0.0006519042071886361,-0.00045225105714052916,-9.817325592041016,0,0,29.04616928100586,1,1,1000,1000
1778782186.53946400,69724599,1,0.0007376240100711584,0.0009568610694259405,0.00092634855536744,-0.0004740632139146328,3.18354504997842e-05,-9.816842079162598,0,0,29.04616928100586,1,1,760,800
1778782186.57944822,69764583,0,0.0009642175282351673,0.0010694180382415652,0.0010413244599476457,-0.0014302260242402554,-0.0011444174451753497,-9.818320274353027,0,0,29.048297882080078,1,1,1000,1000
1778782186.57944822,69764583,1,0.0008791256695985794,0.0010243692668154836,0.0008575458195991814,-0.0008239664020948112,0.0002996864204760641,-9.817121505737305,0,0,29.048297882080078,1,1,760,800
1778782186.61943221,69804567,0,0.0009946388890966773,0.0009800397092476487,0.0010182610712945461,-0.000652170623652637,-0.0012848596088588238,-9.816723823547363,0,0,29.050424575805664,1,1,1000,1000
1778782186.61943221,69804567,1,0.0011458754306659102,0.0008233917178586125,0.0011629892978817225,-0.00034088047686964273,-0.0013761159498244524,-9.816486358642578,0,0,29.050424575805664,1,1,760,800
1778782186.65941620,69844551,0,0.0010111574083566666,0.0010041542118415236,0.0010161339305341244,-0.0006087011424824595,-0.0012223045341670513,-9.818031311035156,0,0,29.052549362182617,1,1,1000,1000
1778782186.65941620,69844551,1,0.0008770546410232782,0.0009046902414411306,0.000897269113920629,0.00048431017785333097,0.0006924703484401107,-9.819272994995117,0,0,29.052549362182617,1,1,760,800
1778782186.69940019,69884535,0,0.0009974061977118254,0.0009629706619307399,0.001035872963257134,-0.0015156834851950407,-0.0011353099253028631,-9.816645622253418,0,0,29.054676055908203,1,1,1000,1000
1778782186.69940019,69884535,1,0.001033303327858448,0.0008693003910593688,0.0011456332867965102,-0.00037860541488043964,-0.0011985785095021129,-9.816617965698242,0,0,29.054676055908203,1,1,760,800
1778782186.73938417,69924519,0,0.00102730724029243,0.0010226673912256956,0.0009362707496620715,-0.0013768099015578628,-0.0008232526015490294,-9.81672477722168,0,0,29.056800842285156,1,1,1000,1000
1778782186.73938417,69924519,1,0.0007404627976939082,0.0010264243464916945,0.0008223355398513377,0.0011731245322152972,-0.001152746845036745,-9.816306114196777,0,0,29.056800842285156,1,1,760,800
1778782186.77936816,69964503,0,0.0010405227076262236,0.0009497181163169444,0.0009206961840391159,-0.0019215813372284174,-0.00032644590828567743,-9.817708969116211,0,0,29.058927536010742,1,1,1000,1000
1778782186.77936816,69964503,1,0.0009382373536936939,0.0008404829422943294,0.0006962075713090599,-0.0033547047059983015,-8.272226114058867e-05,-9.818102836608887,0,0,29.058927536010742,1,1,760,800
1778782186.81935215,70004487,0,0.0009539523744024336,0.0009931210661306977,0.0009719001827761531,0.00037139878259040415,-0.001600705785676837,-9.817456245422363,0,0,29.061052322387695,1,1,1000,1000
1778782186.81935215,70004487,1,0.0010364098707213998,0.0008134797681123018,0.0010003307834267616,0.0003509524976834655,0.0011569414054974914,-9.818477630615234,0,0,29.061052322387695,1,1,760,800
1778782186.85933614,70044471,0,0.0009332648478448391,0.0009194479207508266,0.0009595120791345835,-0.0011571530485525727,-0.0019045282388105989,-9.816539764404297,0,0,29.06317901611328,1,1,1000,1000
1778782186.85933614,70044471,1,0.0007858158787712455,0.0007445134688168764,0.0008388042915612459,-0.0017576728714630008,-0.0034202602691948414,-9.818282127380371,0,0,29.06317901611328,1,1,760,800
1778782186.89932013,70084455,0,0.0010812843684107065,0.0009897587588056922,0.0009294068440794945,-0.0008044526330195367,-0.001158657018095255,-9.817659378051758,0,0,29.065303802490234,1,1,1000,1000
1778782186.89932013,70084455,1,0.0008854276384226978,0.0009128414676524699,0.0008367960108444095,-0.0010646403534337878,0.0006994756404310465,-9.817028045654297,0,0,29.065303802490234,1,1,760,800
1778782186.93930411,70124439,0,0.0010053047444671392,0.0009884678293019533,0.0009704441181384027,-0.0003711783210746944,-0.00044237205293029547,-9.8174467086792,0,0,29.067428588867188,1,1,1000,1000
1778782186.93930411,70124439,1,0.0009714014595374465,0.0009304284467361867,0.0010683679720386863,-0.0005039499374106526,-0.0017835419857874513,-9.819171905517578,0,0,29.067428588867188,1,1,760,800
1778782186.97928810,70164423,0,0.0009453748352825642,0.0009420182323083282,0.0009399250848218799,-0.0001643631112528965,-0.00040141111821867526,-9.818330764770508,0,0,29.069551467895508,1,1,1000,1000
1778782186.97928810,70164423,1,0.0009911700617522001,0.001179949496872723,0.0009511179523542523,-0.003841455327346921,-0.001693429658189416,-9.817327499389648,0,0,29.069551467895508,1,1,760,800
1778782187.01927209,70204407,0,0.001026968122459948,0.0009375912486575544,0.0010613863123580813,-0.0003429515054449439,-0.00135971256531775,-9.817520141601562,0,0,29.071674346923828,1,1,1000,1000
1778782187.01927209,70204407,1,0.00103902374394238,0.0011685171630233526,0.001081641181372106,-0.0020072341430932283,-0.001485483138822019,-9.817943572998047,0,0,29.071674346923828,1,1,760,800
1778782187.05925608,70244391,0,0.0009982467163354158,0.0010029898257926106,0.0009901958983391523,-0.0010103887179866433,-0.0017309455433860421,-9.818033218383789,0,0,29.07379913330078,1,1,1000,1000
1778782187.05925608,70244391,1,0.001324532786384225,0.0009433353552594781,0.0010762884048745036,-0.002524647396057844,-0.0010080995270982385,-9.816515922546387,0,0,29.07379913330078,1,1,760,800
1778782187.09924006,70284375,0,0.0009768870659172535,0.0009657312766648829,0.0009651760919950902,-0.0014574120286852121,-0.0014833471504971385,-9.817671775817871,0,0,29.075923919677734,1,1,1000,1000
1778782187.09924006,70284375,1,0.0010034525766968727,0.0010117964120581746,0.0011865149717777967,-0.00010143445979338139,6.545381620526314e-05,-9.81806755065918,0,0,29.075923919677734,1,1,760,800
1778782187.13922405,70324359,0,0.001049237558618188,0.0009713630424812436,0.0010441243648529053,-0.000929497298784554,-0.0010138145880773664,-9.817633628845215,0,0,29.078044891357422,1,1,1000,1000
1778782187.13922405,70324359,1,0.0009950228268280625,0.000879691622685641,0.001078158849850297,-0.0005948726320639253,-0.0011285750661045313,-9.815343856811523,0,0,29.078044891357422,1,1,760,800
1778782187.18004107,70365176,0,0.0009552733972668648,0.0009527133661322296,0.001032244530506432,-0.0013325370382517576,-0.0010606077266857028,-9.817166328430176,0,0,29.080169677734375,1,1,1000,1000
1778782187.18004107,70365176,1,0.0010874122381210327,0.0009496900602243841,0.0008169925422407687,-0.0021237630862742662,-0.0007123118848539889,-9.816253662109375,0,0,29.080169677734375,1,1,760,800
1778782187.22002506,70405160,0,0.0009953225962817669,0.0010377204744145274,0.0010822601616382599,-0.0014375391183421016,-0.0019186411518603563,-9.817994117736816,0,0,29.082290649414062,1,1,1000,1000
1778782187.22002506,70405160,1,0.0006700903759337962,0.0007389414822682738,0.0009227924747392535,-9.673286695033312e-05,-0.0009918909054249525,-9.816969871520996,0,0,29.082290649414062,1,1,760,800
1778782187.26000905,70445144,0,0.0010107188718393445,0.0008830249425955117,0.001030416926369071,-0.0012380725238472223,-0.0014558713883161545,-9.817073822021484,0,0,29.084413528442383,1,1,1000,1000
1778782187.26000905,70445144,1,0.0012843499425798655,0.0010059052146971226,0.0010252571664750576,-0.0013701358111575246,-0.0018489717040210962,-9.816377639770508,0,0,29.084413528442383,1,1,760,800
1778782187.29999304,70485128,0,0.0009447635384276509,0.0010182949481531978,0.0010588717414066195,-0.0017224936746060848,-0.0008292183629237115,-9.817070007324219,0,0,29.08653450012207,1,1,1000,1000
1778782187.29999304,70485128,1,0.0010659672552719712,0.0009717222419567406,0.0009785247966647148,-0.0027192160487174988,-0.0011689169332385063,-9.815905570983887,0,0,29.08653450012207,1,1,760,800
1778782187.33997703,70525112,0,0.001024743658490479,0.0010194627102464437,0.0009386866586282849,-0.0002721510245464742,-0.0013653587084263563,-9.817214965820312,0,0,29.08865737915039,1,1,1000,1000
1778782187.33997703,70525112,1,0.00097564299358055,0.00103359657805413,0.001147631905041635,0.0009782395791262388,-0.0009744237759150565,-9.816730499267578,0,0,29.08865737915039,1,1,760,800
1778782187.37996101,70565096,0,0.0009841964347288013,0.0010461971396580338,0.0009727218421176076,-0.0010131356539204717,-0.00024260487407445908,-9.817144393920898,0,0,29.090778350830078,1,1,1000,1000
1778782187.37996101,70565096,1,0.0012301537208259106,0.0011938844108954072,0.000977631425485015,-0.0015458851121366024,0.0008880749810487032,-9.817797660827637,0,0,29.090778350830078,1,1,760,800
1778782187.41994500,70605080,0,0.0010228999890387058,0.0009773045312613249,0.001000432064756751,-0.001515735755674541,-0.002725101774558425,-9.817961692810059,0,0,29.092899322509766,1,1,1000,1000
1778782187.41994500,70605080,1,0.0009543593041598797,0.0009395168162882328,0.0009439195273444057,0.0026663895696401596,0.0012585223885253072,-9.81503677368164,0,0,29.092899322509766,1,1,760,800
1778782187.45992923,70645064,0,0.0010589060839265585,0.0009720058878883719,0.000950050656683743,-0.0007755806436762214,-0.0009360606200061738,-9.817564010620117,0,0,29.095073699951172,1,1,1000,1000
1778782187.45992923,70645064,1,0.0010749613866209984,0.0009114062413573265,0.001006921986117959,-0.0019290444906800985,0.000332655938109383,-9.81747817993164,0,0,29.095073699951172,1,1,760,800
1778782187.49991322,70685048,0,0.0010019156616181135,0.0010208517778664827,0.0010531842708587646,-0.00035266688792034984,-0.0014572421787306666,-9.817349433898926,0,0,29.09719467163086,1,1,1000,1000
1778782187.49991322,70685048,1,0.0007677610265091062,0.001038761343806982,0.0009762888075783849,0.00046076488797552884,0.00026685642660595477,-9.819464683532715,0,0,29.09719467163086,1,1,760,800
1778782187.53989720,70725032,0,0.000999760115519166,0.0009530025999993086,0.0010636845836415887,-0.0010958272032439709,-0.0006313595222309232,-9.818527221679688,0,0,29.099313735961914,1,1,1000,1000
1778782187.53989720,70725032,1,0.0009131603292189538,0.0011194192338734865,0.0009856288088485599,-0.0009664579993113875,-0.00017617073899600655,-9.819598197937012,0,0,29.099313735961914,1,1,760,800
1778782187.57988119,70765016,0,0.0009524913621135056,0.0009762437548488379,0.0009608211694285274,-0.001413540681824088,-0.0008817196357995272,-9.819005012512207,0,0,29.10143280029297,1,1,1000,1000
1778782187.57988119,70765016,1,0.0010131803574040532,0.0009310193709097803,0.0010886277304962277,-0.000630400434602052,-0.0022602765820920467,-9.814898490905762,0,0,29.10143280029297,1,1,760,800
1778782187.61986518,70805000,0,0.0009331637993454933,0.0009667776757851243,0.001044820062816143,-0.0008745491504669189,-0.0016925269737839699,-9.817687034606934,0,0,29.103553771972656,1,1,1000,1000
1778782187.61986518,70805000,1,0.0009383111028000712,0.001142681809142232,0.0010437523014843464,-0.003008286701515317,-0.0005083802388980985,-9.816495895385742,0,0,29.103553771972656,1,1,760,800
1778782187.65984917,70844984,0,0.0010384742636233568,0.0009938270086422563,0.0009435628307983279,-0.00042887352174147964,-0.0021196184679865837,-9.817767143249512,0,0,29.105619430541992,1,1,1000,1000
1778782187.65984917,70844984,1,0.0009374353685416281,0.0010880823247134686,0.0010566350538283587,-0.002418659860268235,-0.0025731991045176983,-9.816146850585938,0,0,29.105619430541992,1,1,760,800
1778782187.69983315,70884968,0,0.0009487724746577442,0.00099180918186903,0.0010645759757608175,-0.0007305777398869395,-0.0017186565091833472,-9.816535949707031,0,0,29.107738494873047,1,1,1000,1000
1778782187.69983315,70884968,1,0.0012474569957703352,0.00081155716907233,0.000960712437517941,-0.0017694622511044145,-0.0009957903530448675,-9.81650161743164,0,0,29.107738494873047,1,1,760,800
1778782187.73981714,70924952,0,0.001046092831529677,0.0009549796814098954,0.000957586569711566,-0.0015058164717629552,-0.0004451966960914433,-9.816559791564941,0,0,29.109859466552734,1,1,1000,1000
1778782187.73981714,70924952,1,0.0011143336305394769,0.0010768722277134657,0.0008749627158977091,0.0008583003655076027,-0.000903393782209605,-9.818035125732422,0,0,29.109859466552734,1,1,760,800
1778782187.77980113,70964936,0,0.0010511321015655994,0.0010519050993025303,0.0009792956989258528,-0.0004879203042946756,-0.0008813400054350495,-9.81710147857666,0,0,29.111976623535156,1,1,1000,1000
1778782187.77980113,70964936,1,0.0008669384988024831,0.0012384603032842278,0.0011100803967565298,-0.0030836667865514755,-0.0014284758362919092,-9.817679405212402,0,0,29.111976623535156,1,1,760,800
1778782187.81978512,71004920,0,0.000978945754468441,0.0009962208569049835,0.000985970487818122,-0.0006850338540971279,-0.0015841899439692497,-9.816766738891602,0,0,29.114093780517578,1,1,1000,1000
1778782187.81978512,71004920,1,0.0010663336142897606,0.0009849779307842255,0.0007024160586297512,-0.0004477943293750286,-0.0016897657187655568,-9.81800365447998,0,0,29.114093780517578,1,1,760,800
1778782187.85976911,71044904,0,0.000987741630524397,0.000945546489674598,0.0010301064467057586,-0.0007589029264636338,-0.0005999560235068202,-9.81745433807373,0,0,29.1162109375,1,1,1000,1000
1778782187.85976911,71044904,1,0.001076022512279451,0.0012390438932925463,0.0009923061588779092,0.000408356252592057,-0.0018805169966071844,-9.81689453125,0,0,29.1162109375,1,1,760,800
1778782187.89975309,71084888,0,0.0010031951824203134,0.000951482739765197,0.001032401924021542,-0.001132439007051289,-0.0014151196228340268,-9.818842887878418,0,0,29.118330001831055,1,1,1000,1000
1778782187.89975309,71084888,1,0.0008108492475003004,0.0008778673363849521,0.0010913413716480136,-0.0006806874298490584,-0.0015293075703084469,-9.818780899047852,0,0,29.118330001831055,1,1,760,800
1778782187.93973708,71124872,0,0.0010427222587168217,0.0009807944297790527,0.0009920268785208464,-0.0013310991926118731,-0.00025830999948084354,-9.817981719970703,0,0,29.120447158813477,1,1,1000,1000
1778782187.93973708,71124872,1,0.0012745297281071544,0.0010745726758614182,0.0011561547871679068,-0.00038184510776773095,-0.0023301797918975353,-9.81576156616211,0,0,29.120447158813477,1,1,760,800
1778782187.97972107,71164856,0,0.0010583547409623861,0.0010087382979691029,0.0009788015158846974,-0.0016917861066758633,-0.0011685078497976065,-9.818304061889648,0,0,29.1225643157959,1,1,1000,1000
1778782187.97972107,71164856,1,0.0011925770668312907,0.0011237405706197023,0.0012555173598229885,-0.0026953513734042645,0.0004606576985679567,-9.817708969116211,0,0,29.1225643157959,1,1,760,800
1778782188.01970506,71204840,0,0.0010453348513692617,0.000995494658127427,0.0010196188231930137,-0.001115932478569448,-0.00030700070783495903,-9.816993713378906,0,0,29.12468147277832,1,1,1000,1000
1778782188.01970506,71204840,1,0.0007887027459219098,0.0008882888359948993,0.0011911893961951137,0.002444181125611067,-0.000655599869787693,-9.816713333129883,0,0,29.12468147277832,1,1,760,800
1778782188.05968904,71244824,0,0.0010513811139389873,0.0010844056960195303,0.0009857125114649534,-0.0022637287620455027,-0.0004593065823428333,-9.816749572753906,0,0,29.12679672241211,1,1,1000,1000
1778782188.05968904,71244824,1,0.0009741971152834594,0.0010941168293356895,0.0009154576109722257,-0.002416596282273531,-0.0019437584560364485,-9.816041946411133,0,0,29.12679672241211,1,1,760,800
1778782188.09967303,71284808,0,0.0009896688861772418,0.0009502468165010214,0.0010239639086648822,-0.0022692398633807898,-0.0021139131858944893,-9.818608283996582,0,0,29.12891387939453,1,1,1000,1000
1778782188.09967303,71284808,1,0.0010639645624905825,0.0010350898373872042,0.0010123817482963204,-0.0008606815827079117,0.00021756987553089857,-9.81680965423584,0,0,29.12891387939453,1,1,760,800
1778782188.13965702,71324792,0,0.0009874097304418683,0.001008888822980225,0.000993262161500752,-0.0009257699130102992,-0.00026456094929017127,-9.816102981567383,0,0,29.131031036376953,1,1,1000,1000
1778782188.13965702,71324792,1,0.0010217365343123674,0.0009846973698586226,0.0010411444818601012,-0.0025098929181694984,-0.0016760777216404676,-9.816109657287598,0,0,29.131031036376953,1,1,760,800
1778782188.17964101,71364776,0,0.001005830941721797,0.0010431540431454778,0.0010039204498752952,-0.0011588000925257802,-0.0007655640365555882,-9.81706428527832,0,0,29.133146286010742,1,1,1000,1000
1778782188.17964101,71364776,1,0.0009248058777302504,0.0010235669324174523,0.0010049936827272177,-0.0026020121295005083,-0.0007754341932013631,-9.815725326538086,0,0,29.133146286010742,1,1,760,800
1778782188.21962500,71404760,0,0.0010668328031897545,0.0010426617227494717,0.0009773997589945793,-0.0012350397882983088,-0.0002564967726357281,-9.816308975219727,0,0,29.13526153564453,1,1,1000,1000
1778782188.21962500,71404760,1,0.0008805012330412865,0.0008975389646366239,0.0008825003169476986,-7.183891284512356e-05,-0.001384650357067585,-9.818187713623047,0,0,29.13526153564453,1,1,760,800
1778782188.25960922,71444744,0,0.0009971170220524073,0.0010079307248815894,0.0009948688093572855,-0.0016825690399855375,-0.00045239919563755393,-9.817102432250977,0,0,29.13737678527832,1,1,1000,1000
1778782188.25960922,71444744,1,0.0007535484619438648,0.0008849838050082326,0.0013671871274709702,-0.002210256177932024,0.0010081033688038588,-9.81946086883545,0,0,29.13737678527832,1,1,760,800
1778782188.29959321,71484728,0,0.0009484565234743059,0.0009517223807051778,0.0009641959914006293,-0.0009006334003061056,-0.0004361647297628224,-9.818422317504883,0,0,29.13949203491211,1,1,1000,1000
1778782188.29959321,71484728,1,0.0009563901112414896,0.0009896531701087952,0.0009405673481523991,4.278754204278812e-05,-0.0005251223919913173,-9.818140983581543,0,0,29.13949203491211,1,1,760,800
1778782188.33957720,71524712,0,0.0010416728910058737,0.0009987723315134645,0.0010444866493344307,-0.0009373505017720163,-0.0004918727790936828,-9.816542625427246,0,0,29.141605377197266,1,1,1000,1000
1778782188.33957720,71524712,1,0.0008211858803406358,0.0008781144279055297,0.0009457950945943594,-0.0018141911132261157,-0.001268997904844582,-9.82095718383789,0,0,29.141605377197266,1,1,760,800
1778782188.37956119,71564696,0,0.0009301770478487015,0.0010155488271266222,0.0011071464978158474,-0.0006532419356517494,-0.00039107707561925054,-9.817618370056152,0,0,29.143720626831055,1,1,1000,1000
1778782188.37956119,71564696,1,0.000979108503088355,0.0009173818398267031,0.0010070216376334429,-0.0009034790564328432,-0.00389881688170135,-9.818017959594727,0,0,29.143720626831055,1,1,760,800
1778782188.41954517,71604680,0,0.0010093817254528403,0.0009678039932623506,0.0009991666302084923,-0.0013529709540307522,-0.0008162150043062866,-9.817392349243164,0,0,29.14583396911621,1,1,1000,1000
1778782188.41954517,71604680,1,0.0008807111298665404,0.0008810863364487886,0.0011320402845740318,-0.002623226959258318,-0.0011382387019693851,-9.817253112792969,0,0,29.14583396911621,1,1,760,800
1778782188.45952916,71644664,0,0.001003323937766254,0.001049903454259038,0.0010729702189564705,-0.0005531618953682482,-0.0012967870570719242,-9.817606925964355,0,0,29.14794921875,1,1,1000,1000
1778782188.45952916,71644664,1,0.000998235889710486,0.0011206886265426874,0.000988104147836566,-0.00024416905944235623,-0.0033460999839007854,-9.820394515991211,0,0,29.14794921875,1,1,760,800
1778782188.49951315,71684648,0,0.001009008614346385,0.0009399205446243286,0.0009876283584162593,-0.0006561866612173617,-0.0017057966906577349,-9.818910598754883,0,0,29.150062561035156,1,1,1000,1000
1778782188.49951315,71684648,1,0.0009693230967968702,0.0010574404150247574,0.0008330940036103129,-0.0037757540121674538,0.0006949998787604272,-9.816906929016113,0,0,29.150062561035156,1,1,760,800
1778782188.53949714,71724632,0,0.0010611183242872357,0.0011057128431275487,0.0010122698731720448,0.00012739436351694167,-0.0009775222279131413,-9.816672325134277,0,0,29.152175903320312,1,1,1000,1000
1778782188.53949714,71724632,1,0.0008165681501850486,0.001026395708322525,0.001295916736125946,-0.001544687314890325,-0.0011383213568478823,-9.817630767822266,0,0,29.152175903320312,1,1,760,800
1778782188.57948112,71764616,0,0.0008866262505762279,0.0009594367584213614,0.001045841258019209,-0.002168915932998061,-0.0009721817914396524,-9.817861557006836,0,0,29.154287338256836,1,1,1000,1000
1778782188.57948112,71764616,1,0.0010960050858557224,0.0010739200515672565,0.0010160863166674972,-0.0023038641083985567,-0.0014306813245639205,-9.818792343139648,0,0,29.154287338256836,1,1,760,800
1778782188.61946511,71804600,0,0.0010104663670063019,0.0009891202207654715,0.0010039056651294231,-0.0021535158157348633,-0.00019908329704776406,-9.817282676696777,0,0,29.156400680541992,1,1,1000,1000
1778782188.61946511,71804600,1,0.0007885413942858577,0.0011131990468129516,0.0010673715732991695,-0.0012889985227957368,-0.0007095073233358562,-9.817169189453125,0,0,29.156400680541992,1,1,760,800
1778782188.65944910,71844584,0,0.001018294133245945,0.0010250979103147984,0.0010701577411964536,-0.0009023420279845595,0.0003853339876513928,-9.81796646118164,0,0,29.158512115478516,1,1,1000,1000
1778782188.65944910,71844584,1,0.0008713335264474154,0.0009682544623501599,0.0009833272779360414,-0.0023265182971954346,-0.001661735586822033,-9.817458152770996,0,0,29.158512115478516,1,1,760,800
1778782188.69943309,71884568,0,0.0010576267959550023,0.000977052259258926,0.000992501387372613,-0.0023724765051156282,-0.001690068980678916,-9.816301345825195,0,0,29.160625457763672,1,1,1000,1000
1778782188.69943309,71884568,1,0.0009456701809540391,0.001158249331638217,0.0011920466786250472,-0.0002013601188082248,-0.0021962039172649384,-9.817245483398438,0,0,29.160625457763672,1,1,760,800
1778782188.73941708,71924552,0,0.0010237933602184057,0.0010617051739245653,0.0010053213918581605,-0.0005750731215812266,-0.001589677995070815,-9.816997528076172,0,0,29.162736892700195,1,1,1000,1000
1778782188.73941708,71924552,1,0.0010371441021561623,0.0009223268134519458,0.0009261587983928621,-0.0013824435882270336,0.00014062225818634033,-9.81746768951416,0,0,29.162736892700195,1,1,760,800
1778782188.77940106,71964536,0,0.0010275165550410748,0.0010086323600262403,0.0009871067013591528,7.009296678006649e-05,-0.0005191924283280969,-9.818275451660156,0,0,29.16484832763672,1,1,1000,1000
1778782188.77940106,71964536,1,0.001162286614999175,0.0010624508140608668,0.0009919994045048952,-0.0004889711271971464,-0.00372128514572978,-9.81640338897705,0,0,29.16484832763672,1,1,760,800
1778782188.81938505,72004520,0,0.0010761646553874016,0.0010147554567083716,0.0010089094284921885,-0.00022234108473639935,-0.0004777158028446138,-9.816996574401855,0,0,29.166959762573242,1,1,1000,1000
1778782188.81938505,72004520,1,0.0009661127696745098,0.000959759287070483,0.0011503847781568766,-0.002040139166638255,-0.0008759789634495974,-9.81574821472168,0,0,29.166959762573242,1,1,760,800
1778782188.85936904,72044504,0,0.0010568407597020268,0.0010026306845247746,0.0009668667335063219,-0.0009067313512787223,-0.0003798810357693583,-9.818435668945312,0,0,29.169071197509766,1,1,1000,1000
1778782188.85936904,72044504,1,0.0010347553761675954,0.0009731731843203306,0.001136087579652667,-0.00138077512383461,-0.0028888152446597815,-9.815546035766602,0,0,29.169071197509766,1,1,760,800
1778782188.89935303,72084488,0,0.001038950402289629,0.0010063850786536932,0.0009805778972804546,-5.8180656196782365e-05,-0.0004124859697185457,-9.81833267211914,0,0,29.171180725097656,1,1,1000,1000
1778782188.89935303,72084488,1,0.0008711822447367013,0.0010283663868904114,0.0012337147491052747,-0.0005410516750998795,-0.00131955835968256,-9.818567276000977,0,0,29.171180725097656,1,1,760,800
1778782188.93933702,72124472,0,0.000996345654129982,0.0009932182729244232,0.0010277178371325135,-0.0009127446683123708,-0.0010512153385207057,-9.818178176879883,0,0,29.17329216003418,1,1,1000,1000
1778782188.93933702,72124472,1,0.0012480339501053095,0.0009131660917773843,0.0011851206654682755,-0.0003544241772033274,-0.0008110353373922408,-9.817779541015625,0,0,29.17329216003418,1,1,760,800
1778782188.97932100,72164456,0,0.0010565733537077904,0.0010517181362956762,0.0010128567228093743,-0.0018420343985781074,-0.00016749955830164254,-9.818565368652344,0,0,29.17540168762207,1,1,1000,1000
1778782188.97932100,72164456,1,0.0011189458891749382,0.0010148793226107955,0.0009999184403568506,-0.0010280376300215721,-0.0032335533760488033,-9.81492805480957,0,0,29.17540168762207,1,1,760,800
1778782189.01930523,72204440,0,0.001045533106662333,0.0010236361995339394,0.0010845789220184088,-0.0011259402381256223,-0.0018607790116220713,-9.816255569458008,0,0,29.17751121520996,1,1,1000,1000
1778782189.01930523,72204440,1,0.0007159874076023698,0.0009368857135996222,0.0010741270380094647,-0.00013297444093041122,-0.002937580458819866,-9.818205833435059,0,0,29.17751121520996,1,1,760,800
1778782189.05928922,72244424,0,0.0010807779617607594,0.0010019526816904545,0.0009131322149187326,-0.0003155797894578427,-0.001770723843947053,-9.816570281982422,0,0,29.17962074279785,1,1,1000,1000
1778782189.05928922,72244424,1,0.0011642880272120237,0.0010140070226043463,0.0006532726110890508,-0.0008784743258729577,-0.0009140088804997504,-9.816737174987793,0,0,29.17962074279785,1,1,760,800
1778782189.09927320,72284408,0,0.0010254803346469998,0.0011196811683475971,0.0010133974719792604,-0.0008376673795282841,-0.00044776577851735055,-9.818099021911621,0,0,29.18172836303711,1,1,1000,1000
1778782189.09927320,72284408,1,0.0010496017057448626,0.0011556835379451513,0.001194408512674272,-0.0012395191006362438,-0.0015237771440297365,-9.818058013916016,0,0,29.18172836303711,1,1,760,800
1778782189.13925719,72324392,0,0.0010729011846706271,0.0010432039853185415,0.0010827368823811412,-0.00265313358977437,-0.0006900517037138343,-9.817501068115234,0,0,29.183839797973633,1,1,1000,1000
1778782189.13925719,72324392,1,0.0010912803700193763,0.0010903497459366918,0.0010168589651584625,0.0016368483193218708,0.0007729436620138586,-9.819509506225586,0,0,29.183839797973633,1,1,760,800
1778782189.17924118,72364376,0,0.0009915137197822332,0.001042112591676414,0.0009737773216329515,-0.0016495094168931246,-0.0018621517810970545,-9.817293167114258,0,0,29.18594741821289,1,1,1000,1000
1778782189.17924118,72364376,1,0.001322953961789608,0.0011444403789937496,0.000830155098810792,-0.0016419549938291311,0.00011191132216481492,-9.818704605102539,0,0,29.18594741821289,1,1,760,800
1778782189.21922517,72404360,0,0.0009273147443309426,0.0010916870087385178,0.0010581410024315119,-0.001197868143208325,-0.00023012432211544365,-9.81747817993164,0,0,29.18805694580078,1,1,1000,1000
1778782189.21922517,72404360,1,0.001092727528885007,0.001106377225369215,0.001005289377644658,-0.0011183505412191153,-0.0006868915515951812,-9.817425727844238,0,0,29.18805694580078,1,1,760,800
1778782189.26004219,72445177,0,0.0010296870023012161,0.0010417974554002285,0.001052433392032981,-0.000988595886155963,-0.001829908462241292,-9.817736625671387,0,0,29.19016456604004,1,1,1000,1000
1778782189.26004219,72445177,1,0.001131952740252018,0.0011331660207360983,0.001009355764836073,-3.326204023323953e-06,-0.001897146925330162,-9.818758964538574,0,0,29.19016456604004,1,1,760,800
1778782189.30002618,72485161,0,0.0010124334366992116,0.0010604634881019592,0.0010059381602331996,-0.0010998707730323076,-0.001149868592619896,-9.818473815917969,0,0,29.192272186279297,1,1,1000,1000
1778782189.30002618,72485161,1,0.0010100387735292315,0.0008902526460587978,0.001005483907647431,-0.0038689072243869305,-0.001975663471966982,-9.815507888793945,0,0,29.192272186279297,1,1,760,800
1778782189.34001017,72525145,0,0.0009670810541138053,0.0009944658959284425,0.0010108522837981582,0.0002840595261659473,-0.0007923410157673061,-9.816481590270996,0,0,29.194379806518555,1,1,1000,1000
1778782189.34001017,72525145,1,0.0010193424532189965,0.0010067950934171677,0.001141740707680583,3.8280453736661e-05,0.0004988596774637699,-9.818472862243652,0,0,29.194379806518555,1,1,760,800
1778782189.37999415,72565129,0,0.0010058028856292367,0.000966944673564285,0.0010574625339359045,-0.0012153818970546126,-0.0007903894293121994,-9.818330764770508,0,0,29.196487426757812,1,1,1000,1000
1778782189.37999415,72565129,1,0.0009016235126182437,0.0009184021037071943,0.0008975451346486807,0.0019446088699623942,-4.104485924472101e-06,-9.818137168884277,0,0,29.196487426757812,1,1,760,800
1778782189.41997814,72605113,0,0.0009423966403119266,0.001128469011746347,0.0010858576279133558,-0.0006165640079416335,-0.0010635324288159609,-9.817774772644043,0,0,29.198593139648438,1,1,1000,1000
1778782189.41997814,72605113,1,0.0008219080045819283,0.0008736738236621022,0.0011248691007494926,-0.0012389400508254766,-0.0014853801112622023,-9.817930221557617,0,0,29.198593139648438,1,1,760,800
1778782189.45996213,72645097,0,0.0010669762268662453,0.0010544219985604286,0.0009870624635368586,-0.00034864721237681806,-0.000314067438011989,-9.817864418029785,0,0,29.200700759887695,1,1,1000,1000
1778782189.45996213,72645097,1,0.0011368755949661136,0.0010277749970555305,0.0010451702401041985,-0.0024775273632258177,-0.003041364485397935,-9.817602157592773,0,0,29.200700759887695,1,1,760,800
1778782189.49994612,72685081,0,0.0010166768915951252,0.001033475622534752,0.0011499912943691015,-0.0008694324060343206,-0.001370286918245256,-9.817131996154785,0,0,29.20280647277832,1,1,1000,1000
1778782189.49994612,72685081,1,0.0012072360841557384,0.0009987236699089408,0.0008094455115497112,-0.0028867973014712334,0.0002855049096979201,-9.819931983947754,0,0,29.20280647277832,1,1,760,800
1778782189.53993011,72725065,0,0.0010711085051298141,0.0010152491740882397,0.0009895177790895104,-0.0012973850825801492,-0.0004260693967808038,-9.818044662475586,0,0,29.204965591430664,1,1,1000,1000
1778782189.53993011,72725065,1,0.001057730638422072,0.0009322900441475213,0.0010064691305160522,-0.0024979310110211372,-0.002972969552502036,-9.820658683776855,0,0,29.204965591430664,1,1,760,800
1778782189.57991409,72765049,0,0.0010888485703617334,0.0010239827679470181,0.0010402456391602755,-0.0006046692724339664,-0.0012349545722827315,-9.816360473632812,0,0,29.207073211669922,1,1,1000,1000
1778782189.57991409,72765049,1,0.0008029649034142494,0.0010283326264470816,0.0008702845079824328,0.0020777753088623285,0.0003136036393698305,-9.817789077758789,0,0,29.207073211669922,1,1,760,800
1778782189.61989808,72805033,0,0.0010617292718961835,0.0010833065025508404,0.001027995371259749,-0.001988808624446392,-0.0009619705379009247,-9.816753387451172,0,0,29.209177017211914,1,1,1000,1000
1778782189.61989808,72805033,1,0.0010978899663314223,0.0010303920134902,0.00109101552516222,-0.0014844667166471481,0.00035243286401964724,-9.816146850585938,0,0,29.209177017211914,1,1,760,800
1778782189.65988207,72845017,0,0.001008197315968573,0.0009669357677921653,0.001039491849951446,0.00010795166599564254,-0.0012150714173913002,-9.817248344421387,0,0,29.21128273010254,1,1,1000,1000
1778782189.65988207,72845017,1,0.0008708937093615532,0.0009932703105732799,0.0009705083211883903,-7.179146632552147e-05,-0.00155406235717237,-9.818264961242676,0,0,29.21128273010254,1,1,760,800
1778782189.69986606,72885001,0,0.0009724328410811722,0.001010130625218153,0.0010266252793371677,-0.0019008992239832878,-0.001300595235079527,-9.816877365112305,0,0,29.213388442993164,1,1,1000,1000
1778782189.69986606,72885001,1,0.0009143410134129226,0.001141988905146718,0.0009901499142870307,-0.0034370869398117065,-0.0018174819415435195,-9.819799423217773,0,0,29.213388442993164,1,1,760,800
1778782189.73985004,72924985,0,0.0011374001624062657,0.0010792382527142763,0.001071021193638444,-0.0008936361409723759,-0.001460981904529035,-9.81718635559082,0,0,29.215438842773438,1,1,1000,1000
1778782189.73985004,72924985,1,0.0012943488545715809,0.0010351049713790417,0.0010409352835267782,-1.4389192983799148e-05,-0.0021819076500833035,-9.816703796386719,0,0,29.215438842773438,1,1,760,800
1778782189.77983403,72964969,0,0.0010654901852831244,0.0011086307931691408,0.001011883607134223,-0.0004998853546567261,-0.001024593599140644,-9.817798614501953,0,0,29.217544555664062,1,1,1000,1000
1778782189.77983403,72964969,1,0.0011282101040706038,0.0008586514741182327,0.001300425617955625,-0.004007607698440552,-0.0008092468488030136,-9.818275451660156,0,0,29.217544555664062,1,1,760,800
1778782189.81981802,73004953,0,0.00099330791272223,0.0010970962466672063,0.0010223594726994634,-0.000410991080570966,-9.570238762535155e-05,-9.816412925720215,0,0,29.219648361206055,1,1,1000,1000
1778782189.81981802,73004953,1,0.0011239208979532123,0.0009149719262495637,0.001141032436862588,0.00037932308623567224,-0.0008685678476467729,-9.818065643310547,0,0,29.219648361206055,1,1,760,800
1778782189.85980201,73044937,0,0.0010035950690507889,0.001018570619635284,0.0010287847835570574,-0.000736676505766809,-0.001694921520538628,-9.818197250366211,0,0,29.221752166748047,1,1,1000,1000
1778782189.85980201,73044937,1,0.001065241638571024,0.0011417291825637221,0.000857429695315659,-0.00364255765452981,0.00017498014494776726,-9.818548202514648,0,0,29.221752166748047,1,1,760,800
1778782189.89978600,73084921,0,0.0010469395201653242,0.0010388679802417755,0.0010270472848787904,-0.0004295688995625824,-2.818578650476411e-06,-9.817227363586426,0,0,29.22385597229004,1,1,1000,1000
1778782189.89978600,73084921,1,0.0009296141797676682,0.0009167205425910652,0.0008442451362498105,-0.0021572569385170937,0.00018292717868462205,-9.815815925598145,0,0,29.22385597229004,1,1,760,800
1778782189.93977022,73124905,0,0.0010939834173768759,0.00102103385142982,0.0010700304992496967,-0.0007306101033464074,-4.853758218814619e-05,-9.816551208496094,0,0,29.22595977783203,1,1,1000,1000
1778782189.93977022,73124905,1,0.001118574058637023,0.00103833619505167,0.0009625605307519436,-0.0023134511429816484,-0.0016353726387023926,-9.818721771240234,0,0,29.22595977783203,1,1,760,800
1778782189.97975421,73164889,0,0.001003738259896636,0.0011135380482301116,0.0010486887767910957,-0.0008870080346241593,-0.0004552080645225942,-9.817458152770996,0,0,29.22806167602539,1,1,1000,1000
1778782189.97975421,73164889,1,0.0010559415677562356,0.0008943018037825823,0.0009227883419953287,-0.0010522899683564901,-0.0028949794359505177,-9.81865406036377,0,0,29.22806167602539,1,1,760,800
1778782190.01973820,73204873,0,0.0010932923760265112,0.0010650201002135873,0.0010295480024069548,-0.0014128097100183368,-0.0009724971605464816,-9.818256378173828,0,0,29.230165481567383,1,1,1000,1000
1778782190.01973820,73204873,1,0.0011754244333133101,0.0009713314939290285,0.0010534070897847414,-0.0014140565181151032,-0.0022157011553645134,-9.818121910095215,0,0,29.230165481567383,1,1,760,800
1778782190.05972219,73244857,0,0.0010462829377502203,0.0010391913820058107,0.001092748250812292,-0.0016776794800534844,-0.0007804970955476165,-9.817828178405762,0,0,29.232267379760742,1,1,1000,1000
1778782190.05972219,73244857,1,0.0007231290801428258,0.0012760864337906241,0.0012465004110708833,-0.0026425328105688095,0.00030005729058757424,-9.817098617553711,0,0,29.232267379760742,1,1,760,800
1778782190.09970617,73284841,0,0.0010119456565007567,0.0009818506659939885,0.0009753603953868151,-1.498800702393055e-05,-0.0014134219381958246,-9.817731857299805,0,0,29.234371185302734,1,1,1000,1000
1778782190.09970617,73284841,1,0.0010839705355465412,0.0009190740529447794,0.0011925119906663895,-0.002679449040442705,-0.0008865989511832595,-9.818262100219727,0,0,29.234371185302734,1,1,760,800
1778782190.13969016,73324825,0,0.0010877805761992931,0.0010318149579688907,0.0010475439485162497,-0.0011923409765586257,-0.0005872977199032903,-9.81888484954834,0,0,29.23647117614746,1,1,1000,1000
1778782190.13969016,73324825,1,0.0008667596848681569,0.0009828340262174606,0.001232760027050972,-0.0024626636877655983,-0.0009996893350034952,-9.817716598510742,0,0,29.23647117614746,1,1,760,800
1778782190.17967415,73364809,0,0.000959016673732549,0.0010068027768284082,0.0009783589048311114,-0.001001891796477139,-0.0002747022081166506,-9.818509101867676,0,0,29.23857307434082,1,1,1000,1000
1778782190.17967415,73364809,1,0.000910413742531091,0.0009956598514690995,0.0011773062869906425,0.0012189361732453108,8.824032556731254e-05,-9.81808853149414,0,0,29.23857307434082,1,1,760,800
1778782190.21965814,73404793,0,0.000976538984104991,0.0010608471930027008,0.0010683310683816671,-0.0009376637171953917,-0.00076817482477054,-9.817230224609375,0,0,29.24067497253418,1,1,1000,1000
1778782190.21965814,73404793,1,0.0007938452181406319,0.0011735201114788651,0.001079946174286306,0.0022092838771641254,-0.0028654374182224274,-9.816583633422852,0,0,29.24067497253418,1,1,760,800
1778782190.25964212,73444777,0,0.0010179540840908885,0.0009936199057847261,0.0009948620572686195,-0.0022542139049619436,-0.000870509073138237,-9.818422317504883,0,0,29.24277687072754,1,1,1000,1000
1778782190.25964212,73444777,1,0.0007564108818769455,0.0008569668279960752,0.0011175302788615227,0.0003077019937336445,0.00143350416328758,-9.818297386169434,0,0,29.24277687072754,1,1,760,800
1778782190.29962611,73484761,0,0.001034570625051856,0.0010244481964036822,0.0010676943929865956,0.00024271273287013173,-0.0006828827317804098,-9.81756591796875,0,0,29.244876861572266,1,1,1000,1000
1778782190.29962611,73484761,1,0.0009243441745638847,0.0011379298521205783,0.0010548261925578117,-0.00019236045773141086,-0.00045738398330286145,-9.816593170166016,0,0,29.244876861572266,1,1,760,800
1778782190.33961010,73524745,0,0.0009905354818329215,0.0010122795356437564,0.0010113933822140098,-0.0006522390758618712,-0.0015069121727719903,-9.817034721374512,0,0,29.246978759765625,1,1,1000,1000
1778782190.33961010,73524745,1,0.001004271674901247,0.0010045815724879503,0.0009711213642731309,-0.004715436138212681,-0.00021879513224121183,-9.816049575805664,0,0,29.246978759765625,1,1,760,800
1778782190.37959409,73564729,0,0.001076181884855032,0.001024655532091856,0.0010518921772018075,0.0001159922030637972,-0.0015076659619808197,-9.816786766052246,0,0,29.24907684326172,1,1,1000,1000
1778782190.37959409,73564729,1,0.0008633002871647477,0.0010049407137557864,0.001060475129634142,-0.00041197644895873964,-0.002390356035903096,-9.815572738647461,0,0,29.24907684326172,1,1,760,800
1778782190.41957808,73604713,0,0.0010026356903836131,0.0010376296704635024,0.001082354923710227,-0.0020350078120827675,-0.0007987015414983034,-9.817282676696777,0,0,29.251176834106445,1,1,1000,1000
1778782190.41957808,73604713,1,0.001061780727468431,0.0010436056181788445,0.0010504423407837749,-0.002673004288226366,-0.0015113658737391233,-9.819361686706543,0,0,29.251176834106445,1,1,760,800
1778782190.45956206,73644697,0,0.0010466341627761722,0.0010484777158126235,0.0010229026665911078,-0.0016878622118383646,-0.0009805781301110983,-9.816886901855469,0,0,29.253276824951172,1,1,1000,1000
1778782190.45956206,73644697,1,0.0012087647337466478,0.001109452685341239,0.0010889500845223665,0.00019324387540109456,0.0007053462322801352,-9.820446014404297,0,0,29.253276824951172,1,1,760,800
1778782190.49954605,73684681,0,0.0010261476272717118,0.0010480444179847836,0.00098554533906281,-0.0004369038506411016,-0.00018043204909190536,-9.818185806274414,0,0,29.2553768157959,1,1,1000,1000
1778782190.49954605,73684681,1,0.0012050261721014977,0.00106348458211869,0.0009790188632905483,-0.0028297794051468372,0.0026684284675866365,-9.8208646774292,0,0,29.2553768157959,1,1,760,800
1778782190.53953004,73724665,0,0.0010253747459501028,0.0009934024419635534,0.001071097794920206,-0.001598300295881927,-1.8648226614459418e-05,-9.818017959594727,0,0,29.257476806640625,1,1,1000,1000
1778782190.53953004,73724665,1,0.0010612566256895661,0.0011349779088050127,0.0010347787756472826,-0.0014877517241984606,3.385645686648786e-05,-9.817445755004883,0,0,29.257476806640625,1,1,760,800
1778782190.57951403,73764649,0,0.0010742060840129852,0.0010469213593751192,0.0010474113514646888,-0.0004927411209791899,-0.0019760325085371733,-9.81820297241211,0,0,29.25957489013672,1,1,1000,1000
1778782190.57951403,73764649,1,0.0010289469501003623,0.0010212745983153582,0.0010809949599206448,-0.0029690945520997047,0.0013248773757368326,-9.81922721862793,0,0,29.25957489013672,1,1,760,800
1778782190.61949801,73804633,0,0.0010479653719812632,0.0010173781774938107,0.0010583149269223213,-0.0009069447405636311,-0.0009561724727973342,-9.817499160766602,0,0,29.261672973632812,1,1,1000,1000
1778782190.61949801,73804633,1,0.0007466752431355417,0.0010036553721874952,0.001073489780537784,-0.002420320175588131,-0.0014297605957835913,-9.81560230255127,0,0,29.261672973632812,1,1,760,800
1778782190.65948200,73844617,0,0.0010373833356425166,0.001075757434591651,0.0010458282195031643,-0.0004928550915792584,-0.0011222856119275093,-9.816731452941895,0,0,29.263771057128906,1,1,1000,1000
1778782190.65948200,73844617,1,0.001067392062395811,0.0009206855320371687,0.0010195946088060737,-0.001962778391316533,0.0003573403519112617,-9.818583488464355,0,0,29.263771057128906,1,1,760,800
1778782190.69946623,73884601,0,0.0010251121129840612,0.0010135036427527666,0.0010424288921058178,-0.001110839773900807,-0.0011126409517601132,-9.818685531616211,0,0,29.265869140625,1,1,1000,1000
1778782190.69946623,73884601,1,0.0010260705603286624,0.0012856443645432591,0.0012207184918224812,-0.0013886978849768639,6.856743129901588e-05,-9.817813873291016,0,0,29.265869140625,1,1,760,800
1778782190.73945022,73924585,0,0.0010685386369004846,0.0010143830440938473,0.0010572299361228943,-0.0015367490705102682,-0.0005935823428444564,-9.817363739013672,0,0,29.267967224121094,1,1,1000,1000
1778782190.73945022,73924585,1,0.0010880635818466544,0.0010117558995261788,0.0009174188016913831,0.0004907369147986174,-0.0009605484083294868,-9.817615509033203,0,0,29.267967224121094,1,1,760,800
1778782190.77943420,73964569,0,0.0010528031270951033,0.0011004938278347254,0.0010754880495369434,-0.0014734038850292563,-0.0006447220803238451,-9.818148612976074,0,0,29.270065307617188,1,1,1000,1000
1778782190.77943420,73964569,1,0.0009788620518520474,0.0010595285566523671,0.001053290325216949,-0.001833892660215497,0.0009146431111730635,-9.8157377243042,0,0,29.270065307617188,1,1,760,800
1778782190.81941819,74004553,0,0.001020039664581418,0.0010782165918499231,0.0010371026583015919,-0.001244202721863985,0.00016026399680413306,-9.818207740783691,0,0,29.27216148376465,1,1,1000,1000
1778782190.81941819,74004553,1,0.0010743894381448627,0.0011270794784650207,0.0010630381293594837,0.00044973258627578616,-0.0016971674049273133,-9.816694259643555,0,0,29.27216148376465,1,1,760,800
1778782190.85940218,74044537,0,0.0010234264191240072,0.0009990243706852198,0.0010368016082793474,-0.001203285064548254,-0.0009398063411936164,-9.816862106323242,0,0,29.27425765991211,1,1,1000,1000
1778782190.85940218,74044537,1,0.00102028320543468,0.0011703320778906345,0.0011790476273745298,-0.001958728302270174,-0.0025092903524637222,-9.81725025177002,0,0,29.27425765991211,1,1,760,800
1778782190.89938617,74084521,0,0.0010852572740986943,0.0010853188578039408,0.0010230650659650564,-0.0011790212010964751,-0.00014837815251667053,-9.817140579223633,0,0,29.276355743408203,1,1,1000,1000
1778782190.89938617,74084521,1,0.0010586717398837209,0.0008618923602625728,0.001122779562138021,-0.0010643686400726438,0.0020580722484737635,-9.818936347961426,0,0,29.276355743408203,1,1,760,800
1778782190.93937016,74124505,0,0.001008286140859127,0.0010215537622570992,0.0010883859358727932,-0.002015288919210434,-0.0006656856276094913,-9.817535400390625,0,0,29.278451919555664,1,1,1000,1000
1778782190.93937016,74124505,1,0.0009485818445682526,0.0010042216163128614,0.0011868532747030258,0.0011427175486460328,0.000482455943711102,-9.820655822753906,0,0,29.278451919555664,1,1,760,800
1778782190.97935414,74164489,0,0.0010702654253691435,0.0010264853481203318,0.0010396973229944706,-0.0006416231626644731,-0.0008677124278619885,-9.817513465881348,0,0,29.280548095703125,1,1,1000,1000
1778782190.97935414,74164489,1,0.0009751177276484668,0.0012273082975298166,0.0008318781619891524,-0.0007320185541175306,-0.0009929753141477704,-9.818476676940918,0,0,29.280548095703125,1,1,760,800
1778782191.01933813,74204473,0,0.001032152445986867,0.001047794008627534,0.0009907702915370464,-0.0006995523581281304,-0.0008865018608048558,-9.818374633789062,0,0,29.282644271850586,1,1,1000,1000
1778782191.01933813,74204473,1,0.0009749575983732939,0.001208529807627201,0.0010043064830824733,0.0005430879537016153,-0.0014605334727093577,-9.817281723022461,0,0,29.282644271850586,1,1,760,800
1778782191.05932212,74244457,0,0.0010265691671520472,0.0010309962090104818,0.0011015525087714195,-0.0003957505105063319,-0.001555998926050961,-10.249589920043945,0,0,29.284740447998047,1,1,1000,1000
1778782191.05932212,74244457,1,0.001025171484798193,0.0010854466818273067,0.0010114426258951426,-0.0015110753010958433,0.0023098017554730177,-10.243886947631836,0,0,29.284740447998047,1,1,760,800
1778782191.09930611,74284441,0,0.0010521644726395607,0.0010442860657349229,0.0009689846774563193,-0.0010404862696304917,-0.0008695028955116868,-10.491609573364258,0,0,29.286834716796875,1,1,1000,1000
1778782191.09930611,74284441,1,0.0010598513763397932,0.001026746816933155,0.0011778459884226322,-0.002228833269327879,0.00046155619202181697,-10.490762710571289,0,0,29.286834716796875,1,1,760,800
1778782191.13929009,74324425,0,0.001043301192112267,0.0010955133475363255,0.0010129145812243223,0.0001183919666800648,-0.001366248237900436,-10.358654975891113,0,0,29.288928985595703,1,1,1000,1000
1778782191.13929009,74324425,1,0.000984098995104432,0.0011196085251867771,0.0010470885317772627,-0.0026233294047415257,0.001860831049270928,-10.358325958251953,0,0,29.288928985595703,1,1,760,800
1778782191.17927408,74364409,0,0.0010195623617619276,0.001071009784936905,0.0010538394562900066,-0.0006478417781181633,-0.0009214446763508022,-10.37679672241211,0,0,29.29102325439453,1,1,1000,1000
1778782191.17927408,74364409,1,0.0011291891569271684,0.0008848006254993379,0.0011095814406871796,-0.0004067256231792271,-0.0036289067938923836,-10.37640380859375,0,0,29.29102325439453,1,1,760,800
1778782191.21925807,74404393,0,0.001017603324726224,0.0010717443656176329,0.0010545754339545965,-3.116629522992298e-05,-0.0010945771355181932,-10.401458740234375,0,0,29.29311752319336,1,1,1000,1000
1778782191.21925807,74404393,1,0.0010793455876410007,0.0011542575666680932,0.0009817697573453188,-0.0016558198258280754,-0.0009872751543298364,-10.399078369140625,0,0,29.29311752319336,1,1,760,800
1778782191.25924206,74444377,0,0.0010490341810509562,0.0010877527529373765,0.0010170675814151764,-0.0009281475213356316,-0.0008337018662132323,-10.379581451416016,0,0,29.29521369934082,1,1,1000,1000
1778782191.25924206,74444377,1,0.0010466636158525944,0.0008520249975845218,0.0010658656246960163,-0.0019171428866684437,-0.0016436290461570024,-10.37883186340332,0,0,29.29521369934082,1,1,760,800
1778782191.29922605,74484361,0,0.0010890010744333267,0.0010533033637329936,0.001050350023433566,-0.0009154087747447193,-0.0010501830838620663,-10.356796264648438,0,0,29.297306060791016,1,1,1000,1000
1778782191.29922605,74484361,1,0.0009535887511447072,0.0012181525817140937,0.0010504655074328184,-0.001402763300575316,0.00013576656056102365,-10.354764938354492,0,0,29.297306060791016,1,1,760,800
1778782191.34004307,74525178,0,0.001052837003953755,0.001018101000227034,0.0010596062056720257,-0.001505477586761117,-0.0008590196375735104,-10.346529960632324,0,0,29.299400329589844,1,1,1000,1000
1778782191.34004307,74525178,1,0.0010375757701694965,0.0010552299208939075,0.0008330945856869221,-0.0015630373964086175,-0.0009112480329349637,-10.348504066467285,0,0,29.299400329589844,1,1,760,800
1778782191.38002706,74565162,0,0.001039995113387704,0.0010125729022547603,0.0010802242904901505,-0.0013829394010826945,-0.0005403790273703635,-10.343846321105957,0,0,29.30149269104004,1,1,1000,1000
1778782191.38002706,74565162,1,0.0010076144244521856,0.001042183954268694,0.0012112646363675594,-0.003274058224633336,0.00032153326901607215,-10.34544563293457,0,0,29.30149269104004,1,1,760,800
1778782191.42001104,74605146,0,0.0010700454004108906,0.0010969184804707766,0.0010484755039215088,-0.0011934635695070028,-0.0011662959586828947,-10.351024627685547,0,0,29.303586959838867,1,1,1000,1000
1778782191.42001104,74605146,1,0.0010104549583047628,0.0009091976680792868,0.0009492550743743777,-0.0028274720534682274,-0.0017238573636859655,-10.352874755859375,0,0,29.303586959838867,1,1,760,800
1778782191.45999503,74645130,0,0.0010376404970884323,0.001014835201203823,0.001076016458682716,-0.001718506682664156,-0.0005362433148548007,-10.363004684448242,0,0,29.305679321289062,1,1,1000,1000
1778782191.45999503,74645130,1,0.00102726009208709,0.0011745323427021503,0.001246846397407353,-0.0006115570431575179,1.4763156286790036e-05,-10.363983154296875,0,0,29.305679321289062,1,1,760,800
1778782191.49997902,74685114,0,0.0010718798730522394,0.0010424689389765263,0.001025629579089582,-0.0010877398308366537,-0.00014131286297924817,-10.376214981079102,0,0,29.307771682739258,1,1,1000,1000
1778782191.49997902,74685114,1,0.0011058627860620618,0.0009634521557018161,0.001212075469084084,-0.0002448451705276966,-0.0021766405552625656,-10.376315116882324,0,0,29.307771682739258,1,1,760,800
1778782191.53996301,74725098,0,0.0010480734053999186,0.0009948669467121363,0.001098485547117889,-0.0012412136420607567,-0.000177774069015868,-10.393280029296875,0,0,29.309864044189453,1,1,1000,1000
1778782191.53996301,74725098,1,0.0010181271936744452,0.001102643320336938,0.0009729990269988775,-0.0002087259927066043,-0.0018385162111371756,-10.392101287841797,0,0,29.309864044189453,1,1,760,800
1778782191.57994699,74765082,0,0.0010900081833824515,0.0010445021325722337,0.0010595542844384909,-0.0010601032990962267,-0.000904205022379756,-10.408849716186523,0,0,29.31195640563965,1,1,1000,1000
1778782191.57994699,74765082,1,0.001117546809837222,0.0010696975514292717,0.0012097135186195374,-0.002790238009765744,-0.0026772464625537395,-10.411153793334961,0,0,29.31195640563965,1,1,760,800
1778782191.61993122,74805066,0,0.0010783486068248749,0.0010254610097035766,0.0009902373421937227,-0.0009807075839489698,-0.0011383669916540384,-10.4259033203125,0,0,29.314098358154297,1,1,1000,1000
1778782191.61993122,74805066,1,0.0010983948595821857,0.0011343623045831919,0.0011751524871215224,0.001656971056945622,-0.0011156577384099364,-10.427375793457031,0,0,29.314098358154297,1,1,760,800
1778782191.65991521,74845050,0,0.0010240018600597978,0.0009844639571383595,0.0010707356268540025,-0.0013267749454826117,-0.0003128225216642022,-10.437859535217285,0,0,29.316190719604492,1,1,1000,1000
1778782191.65991521,74845050,1,0.0009551497059874237,0.0010481294011697173,0.0011377455666661263,0.001729875337332487,0.0010769740911200643,-10.439146041870117,0,0,29.316190719604492,1,1,760,800
1778782191.69989920,74885034,0,-0.014238076284527779,-0.012416836805641651,0.0010855383006855845,-0.0009068349609151483,-0.0024129285011440516,-11.5759916305542,0,0,29.318281173706055,1,1,1000,1000
1778782191.69989920,74885034,1,-0.015042425133287907,-0.012987636029720306,0.0011115407105535269,-0.001144631765782833,-0.0015645627863705158,-11.589977264404297,0,0,29.318281173706055,1,1,760,800
1778782191.73988318,74925018,0,-0.022882264107465744,-0.022292353212833405,0.0014030614402145147,-0.0024396064691245556,0.0008048834279179573,-14.792099952697754,0,0,29.32037353515625,1,1,1000,1000
1778782191.73988318,74925018,1,-0.02299376204609871,-0.022561199963092804,0.0016029675025492907,-0.0011856128694489598,-0.0005846198182553053,-14.79544734954834,0,0,29.32037353515625,1,1,760,800
1778782191.77986717,74965002,0,-0.026504557579755783,-0.026207877323031425,0.0016694830264896154,-0.008612207137048244,0.00786636583507061,-15.026516914367676,0,0,29.322463989257812,1,1,1000,1000
1778782191.77986717,74965002,1,-0.026767631992697716,-0.026304904371500015,0.001817965297959745,-0.01055274810642004,0.006762474775314331,-15.026311874389648,0,0,29.322463989257812,1,1,760,800
1778782191.81985116,75004986,0,-0.023976773023605347,-0.02491150051355362,0.001893737935461104,-0.015031546354293823,0.013788928277790546,-14.128008842468262,0,0,29.324501037597656,1,1,1000,1000
1778782191.81985116,75004986,1,-0.023917701095342636,-0.024904876947402954,0.0019791782833635807,-0.015993904322385788,0.014475054107606411,-14.123783111572266,0,0,29.324501037597656,1,1,760,800
1778782191.85983515,75044970,0,-0.022635921835899353,-0.021452082321047783,0.002018675208091736,-0.020001012831926346,0.019306089729070663,-12.92619514465332,0,0,29.32659149169922,1,1,1000,1000
1778782191.85983515,75044970,1,-0.022815916687250137,-0.02135946787893772,0.0018940791487693787,-0.020761070773005486,0.01694050431251526,-12.922378540039062,0,0,29.32659149169922,1,1,760,800
1778782191.89981914,75084954,0,-0.016902653500437737,-0.017035705968737602,0.001981666311621666,-0.0217587873339653,0.020358223468065262,-11.725970268249512,0,0,29.32868003845215,1,1,1000,1000
1778782191.89981914,75084954,1,-0.01675713062286377,-0.017026014626026154,0.002114405855536461,-0.019943514838814735,0.019334230571985245,-11.720221519470215,0,0,29.32868003845215,1,1,760,800
1778782191.93980312,75124938,0,-0.012573625892400742,-0.0120150838047266,0.002038765698671341,-0.018451886251568794,0.016559159383177757,-10.683677673339844,0,0,29.330768585205078,1,1,1000,1000
1778782191.93980312,75124938,1,-0.012539010494947433,-0.011904489248991013,0.0020511492621153593,-0.01844215579330921,0.01726219803094864,-10.676765441894531,0,0,29.330768585205078,1,1,760,800
1778782191.97978711,75164922,0,-0.006936798337846994,-0.0070200953632593155,0.002049611881375313,-0.013617251068353653,0.012175795622169971,-9.89777660369873,0,0,29.33285903930664,1,1,1000,1000
1778782191.97978711,75164922,1,-0.00713743269443512,-0.007258341182023287,0.0020093375351279974,-0.0152457095682621,0.013025294058024883,-9.896722793579102,0,0,29.33285903930664,1,1,760,800
1778782192.01977110,75204906,0,-0.003463038243353367,-0.003549160435795784,0.001984929433092475,-0.00921691209077835,0.007932765409350395,-9.403238296508789,0,0,29.33494758605957,1,1,1000,1000
1778782192.01977110,75204906,1,-0.003295301226899028,-0.0036586401984095573,0.0020281623583287,-0.012472751550376415,0.008524340577423573,-9.400031089782715,0,0,29.33494758605957,1,1,760,800
1778782192.05975509,75244890,0,1.4285515135270543e-05,0.0006169330445118248,0.0019473630236461759,-0.0059152087196707726,0.004433556459844112,-9.172958374023438,0,0,29.3370361328125,1,1,1000,1000
1778782192.05975509,75244890,1,9.074779518414289e-05,0.00041650020284578204,0.001984377857297659,-0.0037142173387110233,0.0005671303952112794,-9.171721458435059,0,0,29.3370361328125,1,1,760,800
1778782192.09973907,75284874,0,0.004144966136664152,0.0043838475830852985,0.0019171303138136864,-0.001312650740146637,-0.0005739955231547356,-9.16087532043457,0,0,29.339122772216797,1,1,1000,1000
1778782192.09973907,75284874,1,0.004183347336947918,0.004378214478492737,0.002021379303187132,-0.0041571082547307014,0.0012835130328312516,-9.161050796508789,0,0,29.339122772216797,1,1,760,800
1778782192.13972306,75324858,0,0.008760465309023857,0.00893366802483797,0.0018445962341502309,0.0003990601107943803,-0.0020149429328739643,-9.313695907592773,0,0,29.34121322631836,1,1,1000,1000
1778782192.13972306,75324858,1,0.008713772520422935,0.008875600062310696,0.0019138193456456065,-0.000966646010056138,-0.0008502650307491422,-9.317495346069336,0,0,29.34121322631836,1,1,760,800
1778782192.17970705,75364842,0,0.010207530111074448,0.010370039381086826,0.0017765183001756668,0.0010977776255458593,-0.0023798428010195494,-9.553755760192871,0,0,29.343299865722656,1,1,1000,1000
1778782192.17970705,75364842,1,0.010195906274020672,0.010286696255207062,0.001706903800368309,-0.0010799355804920197,-0.0053170062601566315,-9.555211067199707,0,0,29.343299865722656,1,1,760,800
1778782192.21969104,75404826,0,0.011454445309937,0.011224486865103245,0.0017095585353672504,-0.001614914508536458,-0.001216128934174776,-9.825748443603516,0,0,29.345386505126953,1,1,1000,1000
1778782192.21969104,75404826,1,0.011546852067112923,0.011238757520914078,0.001553901587612927,-0.0005417846841737628,-0.0015760378446429968,-9.825302124023438,0,0,29.345386505126953,1,1,760,800
1778782192.25967503,75444810,0,0.013016468845307827,0.012892946600914001,0.0016606022836640477,-0.002067318418994546,4.67144709546119e-05,-10.0939302444458,0,0,29.347475051879883,1,1,1000,1000
1778782192.25967503,75444810,1,0.013002011924982071,0.012840972281992435,0.0017251928802579641,-0.001152565237134695,-0.0016081291250884533,-10.093350410461426,0,0,29.347475051879883,1,1,760,800
1778782192.29965901,75484794,0,0.014688020572066307,0.01432268787175417,0.0016779376892372966,-0.0041342261247336864,0.0034544493537396193,-10.330074310302734,0,0,29.349559783935547,1,1,1000,1000
1778782192.29965901,75484794,1,0.014692013151943684,0.014207709580659866,0.0017317996826022863,-0.0038843369111418724,0.0028354250825941563,-10.329911231994629,0,0,29.349559783935547,1,1,760,800
1778782192.33964300,75524778,0,0.013461332768201828,0.014690049923956394,0.0016451864503324032,-0.0056694019585847855,0.003781549632549286,-10.514369010925293,0,0,29.351648330688477,1,1,1000,1000
1778782192.33964300,75524778,1,0.013405414298176765,0.014742609113454819,0.0016905914526432753,-0.0037980168126523495,0.0019477878231555223,-10.514532089233398,0,0,29.351648330688477,1,1,760,800
1778782192.37962723,75564762,0,0.014250555075705051,0.013328206725418568,0.0016290789935737848,-0.006543096620589495,0.00476954085752368,-10.658286094665527,0,0,29.35373306274414,1,1,1000,1000
1778782192.37962723,75564762,1,0.014253063127398491,0.013198867440223694,0.0016788826324045658,-0.005505330394953489,0.0054796370677649975,-10.659326553344727,0,0,29.35373306274414,1,1,760,800
1778782192.41961122,75604746,0,0.016936317086219788,0.015225003473460674,0.0015153861604630947,-0.006886559538543224,0.0067180427722632885,-10.750333786010742,0,0,29.355819702148438,1,1,1000,1000
1778782192.41961122,75604746,1,0.016890423372387886,0.01523488387465477,0.001532077556475997,-0.008552730083465576,0.004048420116305351,-10.75201416015625,0,0,29.355819702148438,1,1,760,800
1778782192.45959520,75644730,0,0.015764422714710236,0.013931951485574245,0.0014840661315247416,-0.007870444096624851,0.006923110224306583,-10.810874938964844,0,0,29.357906341552734,1,1,1000,1000
1778782192.45959520,75644730,1,0.015769440680742264,0.014057442545890808,0.0013548678252846003,-0.007282211445271969,0.004791836254298687,-10.811891555786133,0,0,29.357906341552734,1,1,760,800
1778782192.49957919,75684714,0,0.01301625743508339,0.01160127017647028,0.001500799786299467,-0.00759194465354085,0.006022114772349596,-10.833076477050781,0,0,29.3599910736084,1,1,1000,1000
1778782192.49957919,75684714,1,0.013062028214335442,0.011593353003263474,0.0014865525299683213,-0.008900186978280544,0.00507816206663847,-10.833013534545898,0,0,29.3599910736084,1,1,760,800
1778782192.53956318,75724698,0,0.011873042210936546,0.010569654405117035,0.0014669988304376602,-0.007981643080711365,0.004995581228286028,-10.848471641540527,0,0,29.362077713012695,1,1,1000,1000
1778782192.53956318,75724698,1,0.011788497678935528,0.010650080628693104,0.0013756921980530024,-0.010341083630919456,0.005119998473674059,-10.849444389343262,0,0,29.362077713012695,1,1,760,800
1778782192.57954717,75764682,0,0.011802786961197853,0.01164466142654419,0.0014465609565377235,-0.00959656573832035,0.006976754404604435,-10.83815860748291,0,0,29.36416244506836,1,1,1000,1000
1778782192.57954717,75764682,1,0.01165203470736742,0.011450450867414474,0.0012916338164359331,-0.00980488583445549,0.007508634589612484,-10.838582992553711,0,0,29.36416244506836,1,1,760,800
1778782192.61953115,75804666,0,0.01075309794396162,0.010609382763504982,0.0014314379077404737,-0.008689738810062408,0.007440914399921894,-10.809792518615723,0,0,29.36624526977539,1,1,1000,1000
1778782192.61953115,75804666,1,0.010820940136909485,0.010731248185038567,0.0015737781068310142,-0.009540271013975143,0.007918491959571838,-10.809479713439941,0,0,29.36624526977539,1,1,760,800
1778782192.65951514,75844650,0,0.01174735464155674,0.007672416046261787,0.0014335318701341748,-0.009094538167119026,0.007018313743174076,-10.808697700500488,0,0,29.368330001831055,1,1,1000,1000
1778782192.65951514,75844650,1,0.011624785140156746,0.007611382752656937,0.0012820656411349773,-0.007700313348323107,0.008748572319746017,-10.809863090515137,0,0,29.368330001831055,1,1,760,800
1778782192.69949913,75884634,0,0.009421792812645435,0.009721989743411541,0.0014235926792025566,-0.009497922845184803,0.007111787796020508,-10.806074142456055,0,0,29.37041473388672,1,1,1000,1000
1778782192.69949913,75884634,1,0.009530594572424889,0.009862110018730164,0.001337507739663124,-0.009723354130983353,0.0063298968598246574,-10.806062698364258,0,0,29.37041473388672,1,1,760,800
1778782192.73948312,75924618,0,0.00884610041975975,0.007880567573010921,0.001516227493993938,-0.008860388770699501,0.006526847369968891,-10.810258865356445,0,0,29.372499465942383,1,1,1000,1000
1778782192.73948312,75924618,1,0.008847330696880817,0.007753137964755297,0.0015458452980965376,-0.008095776662230492,0.007629594765603542,-10.809391021728516,0,0,29.372499465942383,1,1,760,800
1778782192.77946711,75964602,0,0.010946976020932198,0.0054715946316719055,0.0014927815645933151,-0.009312009438872337,0.007333947811275721,-10.816943168640137,0,0,29.374582290649414,1,1,1000,1000
1778782192.77946711,75964602,1,0.010884251445531845,0.005322342738509178,0.0016085407696664333,-0.007889647036790848,0.00608295202255249,-10.816017150878906,0,0,29.374582290649414,1,1,760,800
1778782192.81945109,76004586,0,0.0052472613751888275,0.008934427052736282,0.0015234315069392323,-0.00803989265114069,0.007170085329562426,-10.825360298156738,0,0,29.376665115356445,1,1,1000,1000
1778782192.81945109,76004586,1,0.005136942490935326,0.008927307091653347,0.001566573977470398,-0.01146585401147604,0.007076759357005358,-10.826336860656738,0,0,29.376665115356445,1,1,760,800
1778782192.85943508,76044570,0,0.007866033352911472,0.0044104186818003654,0.0014438986545428634,-0.008275133557617664,0.006910813972353935,-10.832061767578125,0,0,29.378747940063477,1,1,1000,1000
1778782192.85943508,76044570,1,0.007797973230481148,0.00441701989620924,0.0014381470391526818,-0.00874260812997818,0.00585847906768322,-10.83326530456543,0,0,29.378747940063477,1,1,760,800
1778782192.89941907,76084554,0,0.0029391287826001644,0.003104071831330657,0.00155527307651937,-0.009326589293777943,0.0059530469588935375,-10.84688949584961,0,0,29.38083267211914,1,1,1000,1000
1778782192.89941907,76084554,1,0.00280589796602726,0.0031597900670021772,0.0015582607593387365,-0.007539109326899052,0.008409252390265465,-10.847522735595703,0,0,29.38083267211914,1,1,760,800
1778782192.93940306,76124538,0,0.006053868215531111,0.006723258178681135,0.0015495039988309145,-0.00863755214959383,0.0060872407630085945,-10.862521171569824,0,0,29.38291358947754,1,1,1000,1000
1778782192.93940306,76124538,1,0.006207367405295372,0.00670241005718708,0.0013407168444246054,-0.0037068743258714676,0.0051129041239619255,-10.86011791229248,0,0,29.38291358947754,1,1,760,800
1778782192.97938704,76164522,0,0.0036807928700000048,0.004018403124064207,0.0015657208859920502,-0.00945451483130455,0.006922881118953228,-10.866113662719727,0,0,29.384994506835938,1,1,1000,1000
1778782192.97938704,76164522,1,0.0037439120933413506,0.003836663207039237,0.0013350462540984154,-0.006665722467005253,0.00547290313988924,-10.862927436828613,0,0,29.384994506835938,1,1,760,800
1778782193.01937103,76204506,0,0.0023105591535568237,0.0020144423469901085,0.0014908740995451808,-0.0068273162469267845,0.0072082290425896645,-10.865928649902344,0,0,29.38707733154297,1,1,1000,1000
1778782193.01937103,76204506,1,0.0024533558171242476,0.0020828591659665108,0.0015280008083209395,-0.011389144696295261,0.0033576576970517635,-10.864741325378418,0,0,29.38707733154297,1,1,760,800
1778782193.05935502,76244490,0,0.004258235450834036,0.0029476815834641457,0.0015735962660983205,-0.006781897507607937,0.006476773880422115,-10.887317657470703,0,0,29.38916015625,1,1,1000,1000
1778782193.05935502,76244490,1,0.00423020962625742,0.0031490540131926537,0.0015096908900886774,-0.008241039700806141,0.004584530834108591,-10.887496948242188,0,0,29.38916015625,1,1,760,800
1778782193.09933901,76284474,0,0.0037053823471069336,0.002704321639612317,0.0015289183938875794,-0.00800282508134842,0.004626661539077759,-10.871504783630371,0,0,29.3912410736084,1,1,1000,1000
1778782193.09933901,76284474,1,0.0036199623718857765,0.002719704993069172,0.0015066997148096561,-0.009410757571458817,0.005410775076597929,-10.869396209716797,0,0,29.3912410736084,1,1,760,800
1778782193.13932300,76324458,0,0.0016733774682506919,0.0026181298308074474,0.0015747060533612967,-0.007634113542735577,0.005096837412565947,-10.892144203186035,0,0,29.393321990966797,1,1,1000,1000
1778782193.13932300,76324458,1,0.0018271789886057377,0.002814854495227337,0.0017091067275032401,-0.007775937207043171,0.004611035343259573,-10.892016410827637,0,0,29.393321990966797,1,1,760,800
1778782193.17930722,76364442,0,0.0016331439837813377,0.002439712407067418,0.001566228223964572,-0.007056330796331167,0.005548398941755295,-10.872997283935547,0,0,29.395402908325195,1,1,1000,1000
1778782193.17930722,76364442,1,0.0016874971333891153,0.002525332383811474,0.0016286432510241866,-0.01014153566211462,0.004612085409462452,-10.873190879821777,0,0,29.395402908325195,1,1,760,800
1778782193.21929121,76404426,0,0.0015676137991249561,0.0002790213911794126,0.0016511538997292519,-0.00708715058863163,0.005845463834702969,-10.89087963104248,0,0,29.397483825683594,1,1,1000,1000
1778782193.21929121,76404426,1,0.0017812150763347745,0.00042805986595340073,0.0016942330403253436,-0.008599812164902687,0.0045098052360117435,-10.891463279724121,0,0,29.397483825683594,1,1,760,800
1778782193.25927520,76444410,0,0.0014941616682335734,0.0005276319570839405,0.0015672469744458795,-0.006531498860567808,0.004407202359288931,-10.870100021362305,0,0,29.39956283569336,1,1,1000,1000
1778782193.25927520,76444410,1,0.0015504143666476011,0.0004393210110720247,0.0015666295075789094,-0.008581927046179771,0.007041604723781347,-10.870780944824219,0,0,29.39956283569336,1,1,760,800
1778782193.29925919,76484394,0,-0.0014013078762218356,0.0015590976690873504,0.001570314634591341,-0.005914514418691397,0.004487972240895033,-10.886504173278809,0,0,29.401643753051758,1,1,1000,1000
1778782193.29925919,76484394,1,-0.0015043099410831928,0.0014671190874651074,0.0015000113053247333,-0.006965732201933861,0.004673642106354237,-10.88686466217041,0,0,29.401643753051758,1,1,760,800
1778782193.33924317,76524378,0,-0.00095144979422912,0.0014556379755958915,0.00158559693954885,-0.006830029655247927,0.0036862629931420088,-10.86528205871582,0,0,29.403722763061523,1,1,1000,1000
1778782193.33924317,76524378,1,-0.00086189154535532,0.0013399380259215832,0.00154348264914006,-0.006820369977504015,0.004497780464589596,-10.864542007446289,0,0,29.403722763061523,1,1,760,800
1778782193.37922716,76564362,0,0.0001467912079533562,-0.0005476444493979216,0.001494569587521255,-0.005805658176541328,0.0037346938624978065,-10.879454612731934,0,0,29.40580177307129,1,1,1000,1000
1778782193.37922716,76564362,1,0.0002605798945296556,-0.00046812708023935556,0.0016774011310189962,-0.003475458826869726,0.005052090156823397,-10.879412651062012,0,0,29.40580177307129,1,1,760,800
1778782193.42004418,76605179,0,8.494898065691814e-05,-0.0003621403011493385,0.001484737149439752,-0.004333799704909325,0.0034401933662593365,-10.840948104858398,0,0,29.407882690429688,1,1,1000,1000
1778782193.42004418,76605179,1,0.00011147509212605655,-0.0003422742011025548,0.0016190498135983944,-0.0037352247163653374,0.0029020647052675486,-10.840500831604004,0,0,29.407882690429688,1,1,760,800
1778782193.46002817,76645163,0,0.00019609018636401743,-0.00014162104343995452,0.001363402116112411,-0.006276869215071201,0.002594192046672106,-10.748035430908203,0,0,29.40995979309082,1,1,1000,1000
1778782193.46002817,76645163,1,0.00022374067339114845,-0.00033224382787011564,0.0014924333663657308,-0.0035816142335534096,0.0025726857129484415,-10.743023872375488,0,0,29.40995979309082,1,1,760,800
1778782193.50001216,76685147,0,0.00017857732018455863,0.000655866926535964,0.001503409817814827,-0.005353929009288549,0.0034034131094813347,-10.637636184692383,0,0,29.412038803100586,1,1,1000,1000
1778782193.50001216,76685147,1,0.00021448740153573453,0.0007083374075591564,0.0015853834338486195,-0.004623438231647015,0.002154400572180748,-10.640342712402344,0,0,29.412038803100586,1,1,760,800
1778782193.53999615,76725131,0,-4.4594999053515494e-05,0.0010259051341563463,0.0015385971637442708,-0.005274483934044838,0.0034879439044743776,-10.536523818969727,0,0,29.41411590576172,1,1,1000,1000
1778782193.53999615,76725131,1,-2.4732045858399943e-05,0.0009502217872068286,0.0015149891842156649,-0.007755262777209282,0.0031579022761434317,-10.53830623626709,0,0,29.41411590576172,1,1,760,800
1778782193.57998013,76765115,0,-0.00013747659977525473,0.0010009382385760546,0.0015217919135466218,-0.004030426498502493,0.000981297343969345,-10.442388534545898,0,0,29.416194915771484,1,1,1000,1000
1778782193.57998013,76765115,1,-0.00013597565703094006,0.0008671570103615522,0.0014901123940944672,-0.005120770074427128,0.003385144518688321,-10.444535255432129,0,0,29.416194915771484,1,1,760,800
1778782193.61996412,76805099,0,-0.0011634558904916048,0.00017206452321261168,0.0014749013353139162,-0.004473001230508089,0.002325971843674779,-10.35651969909668,0,0,29.41827392578125,1,1,1000,1000
1778782193.61996412,76805099,1,-0.0012948757503181696,0.00013847582158632576,0.001282640383578837,-0.003117455169558525,0.002362069208174944,-10.356781959533691,0,0,29.41827392578125,1,1,760,800
1778782193.65994811,76845083,0,-0.0018720270600169897,-0.0007453375146724284,0.001425171853043139,-0.004215898457914591,0.0005253279814496636,-10.274250030517578,0,0,29.42034912109375,1,1,1000,1000
1778782193.65994811,76845083,1,-0.001968168653547764,-0.0007417283486574888,0.0013845738722011447,-0.004777258262038231,0.0026262777391821146,-10.27363395690918,0,0,29.42034912109375,1,1,760,800
1778782193.69993210,76885067,0,-0.0015436445828527212,0.0003684964613057673,0.0014920325484126806,-0.003995305858552456,0.0010173709597438574,-10.199665069580078,0,0,29.422426223754883,1,1,1000,1000
1778782193.69993210,76885067,1,-0.0017389976419508457,0.00022570174769498408,0.0014600695576518774,-0.0023431102745234966,0.002317106118425727,-10.200340270996094,0,0,29.422426223754883,1,1,760,800
1778782193.73991609,76925051,0,-0.0015819668769836426,0.000911405251827091,0.0014428435824811459,-0.003681550733745098,0.0008255745633505285,-10.130162239074707,0,0,29.4245548248291,1,1,1000,1000
1778782193.73991609,76925051,1,-0.0017758901230990887,0.0007649629842489958,0.0014757029712200165,-0.0024803748819977045,0.0012752603506669402,-10.132062911987305,0,0,29.4245548248291,1,1,760,800
1778782193.77990007,76965035,0,0.0006759357638657093,-0.0005127763724885881,0.0014612657250836492,-0.003551594913005829,0.0011429879814386368,-10.070707321166992,0,0,29.426631927490234,1,1,1000,1000
1778782193.77990007,76965035,1,0.0006059208535589278,-0.0005111424252390862,0.0014699394814670086,-0.004924065433442593,-0.0024039186537265778,-10.07063102722168,0,0,29.426631927490234,1,1,760,800
1778782193.81988406,77005019,0,0.000374231138266623,-0.001878984272480011,0.0015171157428994775,-0.0035251574590802193,0.0011695779394358397,-10.012556076049805,0,0,29.428709030151367,1,1,1000,1000
1778782193.81988406,77005019,1,0.000490040925797075,-0.0020076013170182705,0.0014000352239236236,-0.005193172954022884,0.0010147368302568793,-10.014542579650879,0,0,29.428709030151367,1,1,760,800
1778782193.85986805,77045003,0,-0.002952077891677618,0.0013103628298267722,0.0015215829480439425,-0.0019611231982707977,0.0007488132105208933,-9.966419219970703,0,0,29.4307861328125,1,1,1000,1000
1778782193.85986805,77045003,1,-0.002708685351535678,0.0014297032030299306,0.0015185605734586716,-0.003543834900483489,0.001070263097062707,-9.965813636779785,0,0,29.4307861328125,1,1,760,800
1778782193.89985204,77084987,0,-0.0009460208821110427,-0.0015468127094209194,0.001486940891481936,-0.002307017333805561,-0.0014260656898841262,-9.920639038085938,0,0,29.43280792236328,1,1,1000,1000
1778782193.89985204,77084987,1,-0.001114363200031221,-0.0014485917054116726,0.00174096564296633,-0.004137224052101374,-0.0005990214413031936,-9.920323371887207,0,0,29.43280792236328,1,1,760,800
1778782193.93983603,77124971,0,-0.0014579491689801216,-0.002004939364269376,0.0014512750785797834,-0.0015729827573522925,-0.0002292511926498264,-9.893543243408203,0,0,29.43488311767578,1,1,1000,1000
1778782193.93983603,77124971,1,-0.0015058768913149834,-0.0020501422695815563,0.001318415510468185,-0.0032784240320324898,-0.0003856044204439968,-9.891529083251953,0,0,29.43488311767578,1,1,760,800
1778782193.97982001,77164955,0,-0.001403931644745171,0.001315246568992734,0.0013850791146978736,-0.002728785388171673,-0.0004938438069075346,-9.859172821044922,0,0,29.43695831298828,1,1,1000,1000
1778782193.97982001,77164955,1,-0.0013508881675079465,0.001282772864215076,0.0015268618008121848,-0.0020290014799684286,0.0005742101930081844,-9.858480453491211,0,0,29.43695831298828,1,1,760,800
1778782194.01980400,77204939,0,0.0008069539326243103,-0.002335792640224099,0.001217177603393793,-0.0035497236531227827,-0.0001593314518686384,-9.827425956726074,0,0,29.43903350830078,1,1,1000,1000
1778782194.01980400,77204939,1,0.0007501877844333649,-0.002298435429111123,0.001266926876269281,-0.0019457845482975245,0.002039080485701561,-9.82717514038086,0,0,29.43903350830078,1,1,760,800
1778782194.05978823,77244923,0,-0.0027066406328231096,-0.0018102332251146436,0.0008734278962947428,-0.002317397389560938,-0.0009753854828886688,-9.795961380004883,0,0,29.44110870361328,1,1,1000,1000
1778782194.05978823,77244923,1,-0.0026728957891464233,-0.001895323395729065,0.0009132111445069313,-0.0035744477063417435,-0.0008179285214282572,-9.797379493713379,0,0,29.44110870361328,1,1,760,800
1778782194.09977221,77284907,0,0.00036000486579723656,-0.0014773387229070067,0.0007829032838344574,-0.0015394673682749271,-0.00120830861851573,-9.78116512298584,0,0,29.44318389892578,1,1,1000,1000
1778782194.09977221,77284907,1,0.0005175598780624568,-0.0016024401411414146,0.0010051970602944493,-0.0016554449684917927,-0.0010141084203496575,-9.778903007507324,0,0,29.44318389892578,1,1,760,800
1778782194.13975620,77324891,0,0.0007582096732221544,-0.00032132313936017454,0.0005774913588538766,-0.0025779835414141417,-0.0005649966769851744,-9.762602806091309,0,0,29.44525718688965,1,1,1000,1000
1778782194.13975620,77324891,1,0.0008966962341219187,-0.00016137537022586912,0.0008094343356788158,-0.001483109430409968,-0.002055482007563114,-9.761908531188965,0,0,29.44525718688965,1,1,760,800
1778782194.17974019,77364875,0,-0.002079353202134371,-0.0001787212968338281,0.0003375755622982979,-0.0009436301188543439,-0.0014532124623656273,-9.747766494750977,0,0,29.447330474853516,1,1,1000,1000
1778782194.17974019,77364875,1,-0.0020378772169351578,-0.0002740488853305578,0.0005172753008082509,-0.003009744454175234,-0.0019726785831153393,-9.747039794921875,0,0,29.447330474853516,1,1,760,800
1778782194.21972418,77404859,0,-0.0016512277070432901,-0.0018997150473296642,6.951623072382063e-05,-0.0017334830481559038,-0.0023741559125483036,-9.732895851135254,0,0,29.449405670166016,1,1,1000,1000
1778782194.21972418,77404859,1,-0.0017167978221550584,-0.0017731266561895609,-1.1566817192942835e-06,-0.0024362276308238506,0.0004724150930996984,-9.732070922851562,0,0,29.449405670166016,1,1,760,800
1778782194.25970817,77444843,0,-0.0013590642483904958,-0.0015730756567791104,0.00020979679538868368,-0.0015138331800699234,-0.0007340252632275224,-9.73415756225586,0,0,29.45147705078125,1,1,1000,1000
1778782194.25970817,77444843,1,-0.0015434912638738751,-0.0016032408457249403,0.000314562872517854,-0.0021318099461495876,-0.0017676097340881824,-9.73279857635498,0,0,29.45147705078125,1,1,760,800
1778782194.29969215,77484827,0,0.0007635279325768352,-0.001134541817009449,-0.000305627123452723,-0.00196608598344028,-0.0011891452595591545,-9.717354774475098,0,0,29.453550338745117,1,1,1000,1000
1778782194.29969215,77484827,1,0.0006267919670790434,-0.0010348146315664053,-0.000407302170060575,-0.0003528473316691816,-0.0005646739737130702,-9.71751880645752,0,0,29.453550338745117,1,1,760,800
1778782194.33967614,77524811,0,0.0007255704840645194,-0.0004471715074032545,-0.0006150460103526711,-0.001537045231088996,-0.0019142490345984697,-9.711366653442383,0,0,29.455623626708984,1,1,1000,1000
1778782194.33967614,77524811,1,0.0008445802377536893,-0.0004001784254796803,-0.000556724495254457,0.00012651797442231327,-0.00134370441082865,-9.712503433227539,0,0,29.455623626708984,1,1,760,800
1778782194.37966013,77564795,0,0.0007859331672079861,-0.0002894277567975223,-0.0007571093156002462,-0.00023657039855606854,-0.0012287579011172056,-9.712024688720703,0,0,29.45769500732422,1,1,1000,1000
1778782194.37966013,77564795,1,0.0008677795995026827,-0.0004901331849396229,-0.0006138805765658617,-0.0012012118240818381,-0.002551038982346654,-9.710991859436035,0,0,29.45769500732422,1,1,760,800
1778782194.41964412,77604779,0,0.0008024302078410983,0.002782694762572646,-0.0006164914229884744,-0.00019903508655261248,-0.002213058527559042,-9.70826530456543,0,0,29.459766387939453,1,1,1000,1000
1778782194.41964412,77604779,1,0.0008047359297052026,0.0029589904006570578,-0.0007870098343119025,-0.002777214627712965,-0.0013915793970227242,-9.707481384277344,0,0,29.459766387939453,1,1,760,800
1778782194.45962811,77644763,0,0.0008074810029938817,0.0024722684174776077,-0.0005489023169502616,-0.0004112071474082768,-0.001373836537823081,-9.709694862365723,0,0,29.461841583251953,1,1,1000,1000
1778782194.45962811,77644763,1,0.0006979585741646588,0.0025502340868115425,-0.0006362814456224442,0.0008369607967324555,-0.0011336889583617449,-9.711149215698242,0,0,29.461841583251953,1,1,760,800
1778782194.49961209,77684747,0,0.0008379754726774991,0.0023562791757285595,-0.00033180101308971643,-0.0011140049900859594,-0.001493487972766161,-9.711956977844238,0,0,29.463912963867188,1,1,1000,1000
1778782194.49961209,77684747,1,0.0008522426360286772,0.002417652402073145,-0.00037887078360654414,-0.0020877541974186897,-0.0011636705603450537,-9.713300704956055,0,0,29.463912963867188,1,1,760,800
1778782194.53959608,77724731,0,0.0008365275571122766,0.0022553917951881886,-0.00027130619855597615,-0.0010821623727679253,-0.002286454662680626,-9.715127944946289,0,0,29.46598243713379,1,1,1000,1000
1778782194.53959608,77724731,1,0.0007404831703752279,0.002300338353961706,-0.0004396782023832202,-0.0005082250572741032,-0.0027649891562759876,-9.713235855102539,0,0,29.46598243713379,1,1,760,800
1778782194.57958007,77764715,0,0.0009164181537926197,0.002074216492474079,-0.00018155164434574544,-0.0004903661902062595,-0.0010898836189880967,-9.715376853942871,0,0,29.468055725097656,1,1,1000,1000
1778782194.57958007,77764715,1,0.0009543959749862552,0.002346850000321865,-0.00021462216682266444,0.0006507020443677902,-0.002104599494487047,-9.717503547668457,0,0,29.468055725097656,1,1,760,800
1778782194.61956406,77804699,0,0.0009122750489041209,0.002085332293063402,-6.378158286679536e-05,-0.00046154946903698146,-0.0009796635713428259,-9.71845531463623,0,0,29.470125198364258,1,1,1000,1000
1778782194.61956406,77804699,1,0.0008354358142241836,0.002177974907681346,-0.00014613191888201982,-0.0021624919027090073,-0.004452633671462536,-9.718157768249512,0,0,29.470125198364258,1,1,760,800
1778782194.65954804,77844683,0,0.0008858628571033478,0.0009323760168626904,-0.00014543264114763588,-0.0007815078133717179,-0.0027620578184723854,-9.730175018310547,0,0,29.47219467163086,1,1,1000,1000
1778782194.65954804,77844683,1,0.0010310392826795578,0.0012223635567352176,-0.00026994996005669236,-0.001294948160648346,-0.001101073925383389,-9.72961711883545,0,0,29.47219467163086,1,1,760,800
1778782194.69953203,77884667,0,0.0009954744018614292,0.0017263446934521198,-0.000549004296772182,-0.00012267791316844523,-0.0023183058947324753,-9.732357025146484,0,0,29.474266052246094,1,1,1000,1000
1778782194.69953203,77884667,1,0.0008944078581407666,0.001673410413786769,-0.0006441879086196423,-0.0009278730722144246,-0.002706822007894516,-9.734262466430664,0,0,29.474266052246094,1,1,760,800
1778782194.73951602,77924651,0,0.0009783480782061815,0.0038950657472014427,-0.0009521752363070846,-0.0003876080154441297,-0.0006955948192626238,-9.737539291381836,0,0,29.476335525512695,1,1,1000,1000
1778782194.73951602,77924651,1,0.0009553675772622228,0.003969224169850349,-0.000911605020519346,3.6076475225854665e-05,0.0010554480832070112,-9.737289428710938,0,0,29.476335525512695,1,1,760,800
1778782194.77950001,77964635,0,0.001185714267194271,0.0024272992741316557,-0.0013368704821914434,-0.00013089351705275476,-0.001601741067133844,-9.750476837158203,0,0,29.478404998779297,1,1,1000,1000
1778782194.77950001,77964635,1,0.0012061747256666422,0.0025113315787166357,-0.0013031521812081337,-0.00273846834897995,-0.0032316576689481735,-9.749055862426758,0,0,29.478404998779297,1,1,760,800
1778782194.81948400,78004619,0,0.00018378363165538758,0.0023486358113586903,-0.0014951652847230434,-0.0008753998554311693,-0.002239554189145565,-9.7511568069458,0,0,29.48047637939453,1,1,1000,1000
1778782194.81948400,78004619,1,7.816525612724945e-05,0.002431959379464388,-0.0013428301317617297,0.0005701209884136915,0.0005288106622174382,-9.752344131469727,0,0,29.48047637939453,1,1,760,800
1778782194.85946822,78044603,0,-0.0018818145617842674,0.0021975995041429996,-0.0015429473714902997,-0.00010920508793788031,-0.002376947086304426,-9.75534439086914,0,0,29.4825439453125,1,1,1000,1000
1778782194.85946822,78044603,1,-0.0020703880582004786,0.0023262943141162395,-0.0014944321010261774,-0.0010596977081149817,-0.003561165416613221,-9.755097389221191,0,0,29.4825439453125,1,1,760,800
1778782194.89945221,78084587,0,0.0015431083738803864,0.002061530714854598,-0.0013923703227192163,-0.0013340543955564499,-0.0010275797685608268,-9.761541366577148,0,0,29.4846134185791,1,1,1000,1000
1778782194.89945221,78084587,1,0.0016201242106035352,0.0022371525410562754,-0.0013177349464967847,0.0012518264120444655,-0.0023460527881979942,-9.760165214538574,0,0,29.4846134185791,1,1,760,800
1778782194.93943620,78124571,0,0.001384917413815856,0.0019761621952056885,-0.0012094439007341862,-0.00022400407760869712,-0.00172991503495723,-9.762306213378906,0,0,29.48668098449707,1,1,1000,1000
1778782194.93943620,78124571,1,0.0014638956636190414,0.0020581884309649467,-0.0012333502527326345,0.00017192658560816199,-0.0033318232744932175,-9.764023780822754,0,0,29.48668098449707,1,1,760,800
1778782194.97942019,78164555,0,0.0013026113156229258,0.0029215984977781773,-0.00101949623785913,-2.4443444999633357e-05,-0.0023658846039325,-9.767539024353027,0,0,29.488750457763672,1,1,1000,1000
1778782194.97942019,78164555,1,0.0013124344404786825,0.0030853603966534138,-0.0010179574601352215,-0.00022612334578298032,-0.0018678621854633093,-9.766484260559082,0,0,29.488750457763672,1,1,760,800
1778782195.01940417,78204539,0,0.0013131968444213271,0.0037089462857693434,-0.0011830823495984077,-0.0010891855927184224,-0.0021949042566120625,-9.77501106262207,0,0,29.49081802368164,1,1,1000,1000
1778782195.01940417,78204539,1,0.00121648283675313,0.0038114727940410376,-0.0010921417269855738,-0.00025255398941226304,-0.0019297711551189423,-9.772346496582031,0,0,29.49081802368164,1,1,760,800
1778782195.05938816,78244523,0,0.0010287377517670393,0.0026543489657342434,-0.0012456766562536359,-5.3097159252502024e-05,-0.0020560487173497677,-9.783905029296875,0,0,29.49288558959961,1,1,1000,1000
1778782195.05938816,78244523,1,0.0008126567117869854,0.0023955937940627337,-0.0013151621678844094,-0.00021120063320267946,-0.0030875825323164463,-9.784621238708496,0,0,29.49288558959961,1,1,760,800
1778782195.09937215,78284507,0,0.001511582639068365,0.002074724994599819,-0.0012261875672265887,-0.00039169396040961146,-0.0028356921393424273,-9.786198616027832,0,0,29.494953155517578,1,1,1000,1000
1778782195.09937215,78284507,1,0.0015998230082914233,0.0021061929874122143,-0.0013284775195643306,0.0018547517247498035,-0.0026960682589560747,-9.789020538330078,0,0,29.494953155517578,1,1,760,800
1778782195.13935614,78324491,0,0.0008845343254506588,0.001186144771054387,-0.0011585840256884694,9.60806937655434e-05,-0.0040384624153375626,-9.792236328125,0,0,29.497020721435547,1,1,1000,1000
1778782195.13935614,78324491,1,0.0004824455245397985,0.0011337248142808676,-0.0010571666061878204,-0.00063355453312397,0.0007561056409031153,-9.79106616973877,0,0,29.497020721435547,1,1,760,800
1778782195.17934012,78364475,0,-0.0005300920456647873,0.0011410349979996681,-0.0011664172634482384,-0.00016089870769064873,-0.0019648715388029814,-9.800261497497559,0,0,29.499088287353516,1,1,1000,1000
1778782195.17934012,78364475,1,-0.0006768010789528489,0.0011381382355466485,-0.001095309155061841,0.0016515279421582818,-0.00473548611626029,-9.800841331481934,0,0,29.499088287353516,1,1,760,800
1778782195.21932411,78404459,0,-0.0003938390873372555,0.001107351272366941,-0.0009411528590135276,-0.0001194943833979778,-0.0026542176492512226,-9.80046272277832,0,0,29.50115203857422,1,1,1000,1000
1778782195.21932411,78404459,1,-0.00025854588602669537,0.0012001231079921126,-0.0009269504807889462,-0.0007184448186308146,-0.002998916432261467,-9.800358772277832,0,0,29.50115203857422,1,1,760,800
1778782195.25930810,78444443,0,-0.0002655237331055105,0.0011094550136476755,-0.0008400552906095982,-0.0005535758682526648,-0.0017159855924546719,-9.801397323608398,0,0,29.503219604492188,1,1,1000,1000
1778782195.25930810,78444443,1,-0.00033062463626265526,0.0010246604215353727,-0.0007308181957341731,0.0017733396962285042,0.00016734603559598327,-9.799459457397461,0,0,29.503219604492188,1,1,760,800
1778782195.29929209,78484427,0,-8.999506826512516e-05,0.0011025755666196346,-0.0006695982301607728,0.0008990883361548185,-0.0020765187218785286,-9.800848007202148,0,0,29.505287170410156,1,1,1000,1000
1778782195.29929209,78484427,1,-8.810930739855394e-05,0.001288097002543509,-0.0007801059982739389,0.0009001167491078377,-0.00016395753482356668,-9.801244735717773,0,0,29.505287170410156,1,1,760,800
1778782195.33927608,78524411,0,0.004079469479620457,0.0005731655983254313,-0.000454443390481174,2.1431545974337496e-05,-0.002535272855311632,-9.810333251953125,0,0,29.50735092163086,1,1,1000,1000
1778782195.33927608,78524411,1,0.004137082025408745,0.0006805794546380639,-0.0003294397611171007,0.0016219120007008314,-0.001190613373182714,-9.808825492858887,0,0,29.50735092163086,1,1,760,800
1778782195.37926006,78564395,0,0.005736648105084896,-0.00029747403459623456,-0.000577937054913491,0.0011546530295163393,-0.0030573371332138777,-9.820131301879883,0,0,29.509418487548828,1,1,1000,1000
1778782195.37926006,78564395,1,0.005817626602947712,-0.0002757050679065287,-0.00040992037975229323,0.0009600361809134483,0.0005859984084963799,-9.819899559020996,0,0,29.509418487548828,1,1,760,800
1778782195.41924405,78604379,0,0.006349314469844103,-0.0011833853786811233,-0.0005562665755860507,0.00034662222606129944,-0.002648024819791317,-9.820255279541016,0,0,29.51148223876953,1,1,1000,1000
1778782195.41924405,78604379,1,0.006209267769008875,-0.001018677488900721,-0.0005717867752537131,-0.00012735983182210475,-0.004432414658367634,-9.82048511505127,0,0,29.51148223876953,1,1,760,800
1778782195.45922804,78644363,0,0.005780157633125782,-0.00018247257685288787,-0.0005632580723613501,0.0012288542930036783,-0.002073083771392703,-9.823708534240723,0,0,29.513547897338867,1,1,1000,1000
1778782195.45922804,78644363,1,0.005707201547920704,2.758492701104842e-05,-0.0005325013189576566,0.002120434073731303,-0.0038971821777522564,-9.824809074401855,0,0,29.513547897338867,1,1,760,800
1778782195.50004506,78685180,0,0.005538508296012878,-0.0013466307427734137,-0.0007350934902206063,0.0012779542012140155,-0.0017077469965443015,-9.82895565032959,0,0,29.51561164855957,1,1,1000,1000
1778782195.50004506,78685180,1,0.005553457885980606,-0.0014493700582534075,-0.0004454750451259315,-0.0008732164278626442,-0.0031702122651040554,-9.828409194946289,0,0,29.51561164855957,1,1,760,800
1778782195.54002905,78725164,0,0.003787026507779956,-0.0010402280604466796,-0.0008925816509872675,-0.0005467530572786927,-0.0008385969558730721,-9.827978134155273,0,0,29.517677307128906,1,1,1000,1000
1778782195.54002905,78725164,1,0.0036470936611294746,-0.0012600281042978168,-0.0008391841547563672,0.0008534271037206054,-0.0009409416234120727,-9.829943656921387,0,0,29.517677307128906,1,1,760,800
1778782195.58001304,78765148,0,0.002789484104141593,-0.0008348427363671362,-0.0008583456510677934,0.0009079926530830562,-0.0026049097068607807,-9.833847045898438,0,0,29.51974105834961,1,1,1000,1000
1778782195.58001304,78765148,1,0.0028873009141534567,-0.0008177027921192348,-0.0008413218893110752,0.0006518765585497022,-0.0002908236929215491,-9.836057662963867,0,0,29.51974105834961,1,1,760,800
1778782195.61999702,78805132,0,0.0027322026435285807,-0.0006598447216674685,-0.0007034899899736047,0.0013863941421732306,-0.0025810885708779097,-9.832345962524414,0,0,29.521804809570312,1,1,1000,1000
1778782195.61999702,78805132,1,0.002632659859955311,-0.0006516862194985151,-0.0005689837271347642,0.002636994468048215,-0.001743555418215692,-9.8344087600708,0,0,29.521804809570312,1,1,760,800
1778782195.65998101,78845116,0,0.0025504676159471273,-0.0004564058326650411,-0.0005075184744782746,0.0019248281605541706,-0.002521979622542858,-9.832860946655273,0,0,29.523868560791016,1,1,1000,1000
1778782195.65998101,78845116,1,0.002545358147472143,-0.00030424463329836726,-0.0005138351698406041,-0.001816079136915505,-0.0024896871764212847,-9.834179878234863,0,0,29.523868560791016,1,1,760,800
1778782195.69996500,78885100,0,0.002422046149149537,-0.0002997968113049865,-0.0004640601691789925,0.0016934487503021955,-0.0019301151623949409,-9.832236289978027,0,0,29.52593231201172,1,1,1000,1000
1778782195.69996500,78885100,1,0.0022875629365444183,-0.0003883669269271195,-0.0003221887454856187,0.00241168518550694,-0.0033444350119680166,-9.831243515014648,0,0,29.52593231201172,1,1,760,800
1778782195.73994923,78925084,0,0.00224241241812706,-0.00011510610056575388,-0.0003155363956466317,0.0018333636689931154,-0.0018322624964639544,-9.83251667022705,0,0,29.52799415588379,1,1,1000,1000
1778782195.73994923,78925084,1,0.0021906010806560516,2.5086103505600477e-07,-0.00010607449075905606,-0.0004360650200396776,-0.004191213753074408,-9.832833290100098,0,0,29.52799415588379,1,1,760,800
1778782195.77993321,78965068,0,0.0022060303017497063,0.0006714216433465481,-0.00033819195232354105,0.0018881760770455003,-0.002268716925755143,-9.840051651000977,0,0,29.530057907104492,1,1,1000,1000
1778782195.77993321,78965068,1,0.0020062110852450132,0.0007256892276927829,-0.00042336457408964634,0.0016048622783273458,-0.0037569853011518717,-9.838528633117676,0,0,29.530057907104492,1,1,760,800
1778782195.81991720,79005052,0,0.002058738376945257,0.000874717254191637,-0.0005780507926829159,0.000978073920123279,-0.002678678371012211,-9.839879989624023,0,0,29.53217124938965,1,1,1000,1000
1778782195.81991720,79005052,1,0.0020706208888441324,0.0005238114390522242,-0.0007435609004460275,0.002225887728855014,-0.0036314118187874556,-9.840509414672852,0,0,29.53217124938965,1,1,760,800
1778782195.85990119,79045036,0,0.0020280303433537483,0.0009077626746147871,-0.0008316598832607269,0.002167262602597475,-0.0026347548700869083,-9.839595794677734,0,0,29.53423309326172,1,1,1000,1000
1778782195.85990119,79045036,1,0.0018680635839700699,0.0009594248258508742,-0.000656066695228219,-0.00024473381927236915,-0.0017105716979131103,-9.838417053222656,0,0,29.53423309326172,1,1,760,800
1778782195.89988518,79085020,0,0.0019010927062481642,0.001585288206115365,-0.0010457856114953756,0.0006346210138872266,-0.0018169368850067258,-9.837129592895508,0,0,29.536296844482422,1,1,1000,1000
1778782195.89988518,79085020,1,0.0019484242657199502,0.0012705258559435606,-0.0007988575962372124,0.0025971722789108753,-0.004319729749113321,-9.836591720581055,0,0,29.536296844482422,1,1,760,800
1778782195.93986917,79125004,0,0.001770442584529519,0.002927581313997507,-0.001136056031100452,0.0021491979714483023,-0.003245249390602112,-9.837100982666016,0,0,29.538358688354492,1,1,1000,1000
1778782195.93986917,79125004,1,0.001719792140647769,0.002764724660664797,-0.0010723145678639412,0.0005569779314100742,0.00037961988709867,-9.837614059448242,0,0,29.538358688354492,1,1,760,800
1778782195.97985315,79164988,0,0.0017436386551707983,0.0031939237378537655,-0.0012783368583768606,0.0025962996296584606,-0.00345759280025959,-9.836353302001953,0,0,29.540367126464844,1,1,1000,1000
1778782195.97985315,79164988,1,0.0017214531544595957,0.003237757831811905,-0.001276712166145444,-9.230796422343701e-05,-0.0031988476403057575,-9.83586597442627,0,0,29.540367126464844,1,1,760,800
1778782196.01983714,79204972,0,0.0029636919498443604,0.0019489303231239319,-0.0012067474890500307,0.001909781014546752,-0.0028140898793935776,-9.842231750488281,0,0,29.54242706298828,1,1,1000,1000
1778782196.01983714,79204972,1,0.003119322471320629,0.002020707353949547,-0.001096612075343728,0.0022260420955717564,-0.0014030768070369959,-9.841920852661133,0,0,29.54242706298828,1,1,760,800
1778782196.05982113,79244956,0,0.0028039859607815742,0.0012973870616406202,-0.0010453719878569245,0.001656607142649591,-0.0015833699144423008,-9.840558052062988,0,0,29.54448890686035,1,1,1000,1000
1778782196.05982113,79244956,1,0.002599693601951003,0.001216467353515327,-0.0009680528310127556,0.00181392056401819,-0.002041817409917712,-9.840487480163574,0,0,29.54448890686035,1,1,760,800
1778782196.09980512,79284940,0,0.001763456384651363,0.0009336500079371035,-0.0007765372283756733,0.0011201950255781412,-0.003267573192715645,-9.839679718017578,0,0,29.546550750732422,1,1,1000,1000
1778782196.09980512,79284940,1,0.0018951506353914738,0.0010030666599050164,-0.0006740292883478105,0.0031235991045832634,-0.00247984123416245,-9.839366912841797,0,0,29.546550750732422,1,1,760,800
1778782196.13978910,79324924,0,0.002178606577217579,0.0010767321800813079,-0.0005053326603956521,0.0007858059834688902,-0.001678136526606977,-9.84241008758545,0,0,29.54861068725586,1,1,1000,1000
1778782196.13978910,79324924,1,0.002182492520660162,0.0012885724427178502,-0.00047267894842661917,0.0014313994906842709,-0.004988363943994045,-9.841109275817871,0,0,29.54861068725586,1,1,760,800
1778782196.17977309,79364908,0,0.0008820948423817754,0.0011415458284318447,-0.0003897114656865597,0.0016250864136964083,-0.0014049280434846878,-9.839547157287598,0,0,29.550670623779297,1,1,1000,1000
1778782196.17977309,79364908,1,0.0006366969901137054,0.0011761459754779935,-0.0003108722157776356,0.0007343179313465953,-0.0038512679748237133,-9.840145111083984,0,0,29.550670623779297,1,1,760,800
1778782196.21975708,79404892,0,-0.00039279129123315215,0.0012492584064602852,-0.00023038229846861213,0.0024179061874747276,-0.0036771674640476704,-9.8399019241333,0,0,29.552730560302734,1,1,1000,1000
1778782196.21975708,79404892,1,-0.0004920795909129083,0.001311353873461485,-0.0002492393250577152,0.003432437777519226,-0.004555025137960911,-9.839158058166504,0,0,29.552730560302734,1,1,760,800
1778782196.25974107,79444876,0,-0.0002456638030707836,0.0005853512557223439,-0.0001369835517834872,0.002431837609037757,-0.002322023967280984,-9.839364051818848,0,0,29.554790496826172,1,1,1000,1000
1778782196.25974107,79444876,1,-0.0005180883454158902,0.00040086658555082977,-3.603240111260675e-05,0.002352070761844516,-0.0032333151903003454,-9.838095664978027,0,0,29.554790496826172,1,1,760,800
1778782196.29972506,79484860,0,-0.0006340882973745465,0.000788827077485621,-0.0001111026867874898,0.0016223329585045576,-0.0038905527908354998,-9.837793350219727,0,0,29.556848526000977,1,1,1000,1000
1778782196.29972506,79484860,1,-0.0005577042466029525,0.0009411307401023805,0.00022009132953826338,0.0014399595092982054,-0.0039167278446257114,-9.838630676269531,0,0,29.556848526000977,1,1,760,800
1778782196.33970904,79524844,0,-0.0011968966573476791,3.41859195032157e-05,-8.779048221185803e-05,0.002150541404262185,-0.0036847826559096575,-9.839117050170898,0,0,29.55890655517578,1,1,1000,1000
1778782196.33970904,79524844,1,-0.0012330773752182722,8.462847472401336e-05,-8.333771984325722e-05,0.0028916180599480867,-0.0029513314366340637,-9.83807373046875,0,0,29.55890655517578,1,1,760,800
1778782196.37969303,79564828,0,-0.0010057094041258097,-0.0005481109255924821,-2.476433292031288e-05,0.002624370390549302,-0.004744746256619692,-9.837913513183594,0,0,29.56096649169922,1,1,1000,1000
1778782196.37969303,79564828,1,-0.0012006399920210242,-0.0006228139973245561,-0.00013597868382930756,0.004369318950921297,-0.006741194520145655,-9.838842391967773,0,0,29.56096649169922,1,1,760,800
1778782196.41967702,79604812,0,-0.0014732162235304713,-0.0009882260346785188,-6.83093530824408e-05,0.0025713357608765364,-0.004470807034522295,-9.836963653564453,0,0,29.563026428222656,1,1,1000,1000
1778782196.41967702,79604812,1,-0.0014526400482282043,-0.0011449041776359081,0.00016016315203160048,-0.0002099072007695213,-0.004097631201148033,-9.837278366088867,0,0,29.563026428222656,1,1,760,800
1778782196.45966101,79644796,0,-0.0019555301405489445,-0.0007906274404376745,-3.434121026657522e-05,0.0017862338572740555,-0.004196113906800747,-9.836992263793945,0,0,29.56508445739746,1,1,1000,1000
1778782196.45966101,79644796,1,-0.0019470073748379946,-0.0006635787431150675,3.894684141414473e-06,0.001865752274170518,-0.0045337677001953125,-9.83521556854248,0,0,29.56508445739746,1,1,760,800
1778782196.49964499,79684780,0,-0.001777915982529521,-0.0008182624587789178,-1.8457485566614196e-05,0.0013736523687839508,-0.004765077494084835,-9.836769104003906,0,0,29.567142486572266,1,1,1000,1000
1778782196.49964499,79684780,1,-0.0018224007217213511,-0.0006911628879606724,-5.547735054278746e-05,0.001394883613102138,-0.0013203597627580166,-9.834691047668457,0,0,29.567142486572266,1,1,760,800
1778782196.53962922,79724764,0,-0.0013436309527605772,-0.0007400288595817983,4.0797149267746136e-05,0.0026803542859852314,-0.00505787692964077,-9.83470630645752,0,0,29.569198608398438,1,1,1000,1000
1778782196.53962922,79724764,1,-0.001395081402733922,-0.0010393717093393207,-0.00012436331599019468,0.003092393511906266,-0.00644527655094862,-9.835941314697266,0,0,29.569198608398438,1,1,760,800
1778782196.57961321,79764748,0,-0.00010900432243943214,4.389596142573282e-06,4.1349762796016876e-06,0.0021141658071428537,-0.0034875411074608564,-9.836548805236816,0,0,29.571256637573242,1,1,1000,1000
1778782196.57961321,79764748,1,0.00016887964738998562,-1.9754217646550387e-05,-0.0001986752904485911,0.0034528085961937904,-0.005580022465437651,-9.83918285369873,0,0,29.571256637573242,1,1,760,800
1778782196.61959720,79804732,0,0.00016573525499552488,-0.000658986740745604,6.001011570333503e-05,0.0009335777722299099,-0.004345214460045099,-9.834567070007324,0,0,29.573312759399414,1,1,1000,1000
1778782196.61959720,79804732,1,0.00020373542793095112,-0.0007060660282149911,-4.101319063920528e-05,0.00228516710922122,-0.0032298495061695576,-9.834589958190918,0,0,29.573312759399414,1,1,760,800
1778782196.65958118,79844716,0,0.00015139792230911553,-0.0009088804363273084,-3.5586246667662635e-05,0.0029779132455587387,-0.004909161478281021,-9.832352638244629,0,0,29.575368881225586,1,1,1000,1000
1778782196.65958118,79844716,1,0.00028400879818946123,-0.0010268914047628641,4.3900821765419096e-05,0.0005057162488810718,-0.003394454251974821,-9.833169937133789,0,0,29.575368881225586,1,1,760,800
1778782196.69956517,79884700,0,0.0008687105728313327,-0.0009217194747179747,-9.842347208177671e-05,0.0015998133458197117,-0.003919160924851894,-9.838348388671875,0,0,29.57742691040039,1,1,1000,1000
1778782196.69956517,79884700,1,0.0008035049540922046,-0.0008228949154727161,-1.219348359882133e-05,0.0026664775796234608,-0.0024286748375743628,-9.838462829589844,0,0,29.57742691040039,1,1,760,800
1778782196.73954916,79924684,0,0.0013750707730650902,-0.0007013963186182082,-6.718006625305861e-05,0.0019286999013274908,-0.004963535815477371,-9.835539817810059,0,0,29.579483032226562,1,1,1000,1000
1778782196.73954916,79924684,1,0.001520034042187035,-0.0008290458936244249,-3.805000233114697e-05,0.0017948736203834414,-0.004153885878622532,-9.837017059326172,0,0,29.579483032226562,1,1,760,800
1778782196.77953315,79964668,0,0.0021614020224660635,-0.0003211791627109051,-4.5394310291158035e-05,0.0021391240879893303,-0.0047182925045490265,-9.837211608886719,0,0,29.581539154052734,1,1,1000,1000
1778782196.77953315,79964668,1,0.002179945120587945,-0.00011850688315462321,-4.667515167966485e-05,0.002787493634968996,-0.005747078452259302,-9.839253425598145,0,0,29.581539154052734,1,1,760,800
1778782196.81951714,80004652,0,0.0026264318730682135,0.0003166627138853073,5.632961119772517e-07,0.0013947151601314545,-0.004350677132606506,-9.8338041305542,0,0,29.583593368530273,1,1,1000,1000
1778782196.81951714,80004652,1,0.0026611662469804287,0.00020408017735462636,0.00013800145825371146,0.0027017584070563316,-0.008226059377193451,-9.83299446105957,0,0,29.583593368530273,1,1,760,800
1778782196.85950112,80044636,0,0.001989227719604969,0.0011314857983961701,3.672666207421571e-05,0.002240985631942749,-0.005294376984238625,-9.83244514465332,0,0,29.585649490356445,1,1,1000,1000
1778782196.85950112,80044636,1,0.002074349671602249,0.0012361210538074374,-5.535149102797732e-05,0.001990365330129862,-0.006152155343443155,-9.832193374633789,0,0,29.585649490356445,1,1,760,800
1778782196.89948511,80084620,0,0.0009469111682847142,0.0016938470071181655,0.00011759212065953761,0.0018396737286821008,-0.00439840741455555,-9.83148193359375,0,0,29.587705612182617,1,1,1000,1000
1778782196.89948511,80084620,1,0.0009778578532859683,0.0016073361039161682,1.3817068975185975e-05,0.003399495268240571,-0.003174412529915571,-9.83025074005127,0,0,29.587705612182617,1,1,760,800
1778782196.93946910,80124604,0,0.0007994704064913094,0.00164113100618124,9.015949763124809e-05,0.00227272673510015,-0.0056767454370856285,-9.8326416015625,0,0,29.589759826660156,1,1,1000,1000
1778782196.93946910,80124604,1,0.0006118646124377847,0.0015218014596030116,-0.0001423392241122201,0.0012607955140993,-0.003630497492849827,-9.833114624023438,0,0,29.589759826660156,1,1,760,800
1778782196.97945309,80164588,0,3.5265366022940725e-05,0.003197732847183943,0.00011941426782868803,0.0032437732443213463,-0.004184258170425892,-9.831947326660156,0,0,29.591812133789062,1,1,1000,1000
1778782196.97945309,80164588,1,-0.00019052471907343715,0.0032164487056434155,0.00034345174208283424,0.0013369140215218067,-0.006279905792325735,-9.82852840423584,0,0,29.591812133789062,1,1,760,800
1778782197.01943707,80204572,0,-0.0016502233920618892,0.0034799620043486357,0.00015572021948173642,0.0009075906127691269,-0.004973721690475941,-9.830587387084961,0,0,29.593868255615234,1,1,1000,1000
1778782197.01943707,80204572,1,-0.0019504833035171032,0.0032799970358610153,0.0001253169757546857,0.0015206707175821066,-0.006338825449347496,-9.830022811889648,0,0,29.593868255615234,1,1,760,800
1778782197.05942106,80244556,0,-0.00220790458843112,0.0025104214437305927,7.907033432275057e-05,0.0021616981830447912,-0.003590829437598586,-9.825560569763184,0,0,29.595922470092773,1,1,1000,1000
1778782197.05942106,80244556,1,-0.0022900248877704144,0.002419482683762908,0.0002717059396672994,-0.0007570130983367562,-0.004254471510648727,-9.823028564453125,0,0,29.595922470092773,1,1,760,800
1778782197.09940505,80284540,0,0.0004208352183923125,0.0020044853445142508,-6.576233136001974e-05,0.0017011875752359629,-0.005165965296328068,-9.822582244873047,0,0,29.597976684570312,1,1,1000,1000
1778782197.09940505,80284540,1,0.0005932485801167786,0.0021194182336330414,-0.00023221169249154627,0.0009426007163710892,-0.0007925501558929682,-9.823894500732422,0,0,29.597976684570312,1,1,760,800
1778782197.13938904,80324524,0,0.00045186723582446575,0.0013394338311627507,-0.0003270481829531491,0.0012139859609305859,-0.004105640109628439,-9.822972297668457,0,0,29.60002899169922,1,1,1000,1000
1778782197.13938904,80324524,1,0.0002943549188785255,0.0011447485303506255,-0.00010875023144762963,0.002479917835444212,-0.002744631841778755,-9.8252534866333,0,0,29.60002899169922,1,1,760,800
1778782197.17937303,80364508,0,-0.000944067258387804,0.0014648714568465948,-0.000443952449131757,0.001371153979562223,-0.004079862032085657,-9.826032638549805,0,0,29.602083206176758,1,1,1000,1000
1778782197.17937303,80364508,1,-0.0009539367165416479,0.001358767389319837,-0.0003239539510104805,0.0011717760935425758,-0.00693465443328023,-9.823837280273438,0,0,29.602083206176758,1,1,760,800
1778782197.21935701,80404492,0,-0.0026463542599231005,0.0007361238822340965,-0.00039131203084252775,0.0029610784258693457,-0.005296442657709122,-9.826803207397461,0,0,29.604135513305664,1,1,1000,1000
1778782197.21935701,80404492,1,-0.0024883958976715803,0.000585882575251162,-0.0002459234092384577,0.0025411946699023247,-0.003526587039232254,-9.826528549194336,0,0,29.604135513305664,1,1,760,800
