timestamp,TimeUS,I,GyrX,GyrY,GyrZ,AccX,AccY,AccZ,EG,EA,T,GH,AH,GHz,AHz,TimeSec,AttackActive_IMU,GyrZ_attacked,SoftwareSensor_GyrZ,Residual_GyrZ,DetectionFlag_GyrZ,Recovered_GyrZ
1778782185.0600562,68245191,0,0.0010167440632358,0.0009288904839195,0.0009430883219465,-0.0005566106410697,-0.0017835107864812,-9.81635856628418,0,0,28.967269897460938,1,1,1000,1000,0.0,0,0.0009430883219465,0.0009430883219465,0.0,0,0.0009430883219465
1778782185.0600562,68245191,1,0.0010713479714468,0.0009125382057391,0.0009646255057305,-0.0006270866142585,-0.0009066059719771,-9.816941261291504,0,0,28.967269897460938,1,1,760,800,0.0,0,0.0009646255057305,0.0009646255057305,0.0,0,0.0009646255057305
1778782185.1000402,68285175,0,0.00092695269268,0.00102785078343,0.0009967188816517,0.000140477248351,-0.0010759477736428,-9.817687034606934,0,0,28.969406127929688,1,1,1000,1000,0.039984,0,0.0009967188816517,0.0009967188816517,0.0,0,0.0009967188816517
1778782185.1000402,68285175,1,0.0008026814321056,0.0008571604266762,0.0009747815784066,-0.0033684072550386,-0.0020932920742779,-9.815813064575195,0,0,28.969406127929688,1,1,760,800,0.039984,0,0.0009747815784066,0.0009747815784066,0.0,0,0.0009747815784066
1778782185.140024,68325159,0,0.0009292520699091,0.0009313445189036,0.0010488132247701,-0.0007470836280845,-0.0008420448866672,-9.817700386047363,0,0,28.97154426574707,1,1,1000,1000,0.079968,0,0.0010488132247701,0.0010488132247701,0.0,0,0.0010488132247701
1778782185.140024,68325159,1,0.0009966825600713,0.0010021745692938,0.000929417903535,0.0023398036137223,-0.0006484386976808,-9.817811012268066,0,0,28.97154426574707,1,1,760,800,0.079968,0,0.000929417903535,0.000929417903535,0.0,0,0.000929417903535
1778782185.180008,68365143,0,0.0009796759113669,0.0009631673456169,0.0009061958407983,-0.001397579559125,-0.0001307606289628,-9.81652545928955,0,0,28.973682403564453,1,1,1000,1000,0.119952,0,0.0009061958407983,0.0009061958407983,0.0,0,0.0009061958407983
1778782185.180008,68365143,1,0.0007794360863044,0.0009074136032722,0.0010663364082574,-0.0005431720637716,-0.0006474463152699,-9.815536499023438,0,0,28.973682403564453,1,1,760,800,0.119952,0,0.0010663364082574,0.0010663364082574,0.0,0,0.0010663364082574
1778782185.219992,68405127,0,0.0009919030126184,0.0009314038325101,0.0009932953398674,-0.000233312981436,-0.0005399534711614,-9.817441940307615,0,0,28.975818634033203,1,1,1000,1000,0.159936,0,0.0009932953398674,0.0009932953398674,0.0,0,0.0009932953398674
1778782185.219992,68405127,1,0.0009297165670432,0.0009519566665403,0.001463790773414,-0.002718981122598,-0.0018506936030462,-9.817462921142578,0,0,28.975818634033203,1,1,760,800,0.159936,0,0.001463790773414,0.001463790773414,0.0,0,0.001463790773414
1778782185.259976,68445111,0,0.0009382917196489,0.0009764829301275,0.000932399125304,-0.0007896761526353,-0.0020165788009762,-9.81672477722168,0,0,28.97795486450196,1,1,1000,1000,0.19992,0,0.000932399125304,0.000932399125304,0.0,0,0.000932399125304
1778782185.259976,68445111,1,0.0012025635223835,0.0008314242586493,0.0006661394727416,0.0005855793133378,-0.0010608459124341,-9.81966781616211,0,0,28.97795486450196,1,1,760,800,0.19992,0,0.0006661394727416,0.0006661394727416,0.0,0,0.0006661394727416
1778782185.29996,68485095,0,0.000930581940338,0.0010174931958317,0.0010384890483692,-0.0001731978991301,-0.0001881878997664,-9.816143989562988,0,0,28.980091094970703,1,1,1000,1000,0.239904,0,0.0010384890483692,0.0010384890483692,0.0,0,0.0010384890483692
1778782185.29996,68485095,1,0.0009064607438631,0.0011632335372269,0.0009011820657178,-0.0022340668365359,-0.0003524239582475,-9.816535949707031,0,0,28.980091094970703,1,1,760,800,0.239904,0,0.0009011820657178,0.0009011820657178,0.0,0,0.0009011820657178
1778782185.339944,68525079,0,0.0009194340091198,0.0009522274485789,0.0009437653352506,-0.0016205727588385,-0.0017704839119687,-9.817145347595217,0,0,28.982227325439453,1,1,1000,1000,0.279888,0,0.0009437653352506,0.0009437653352506,0.0,0,0.0009437653352506
1778782185.339944,68525079,1,0.0009367497987113,0.0008334041340276,0.0006718640797771,-0.0006455967668443,-0.0003532338887453,-9.816749572753906,0,0,28.982227325439453,1,1,760,800,0.279888,0,0.0006718640797771,0.0006718640797771,0.0,0,0.0006718640797771
1778782185.379928,68565063,0,0.0009470269433222,0.0009749979944899,0.0009961473988369,-0.0004573655314743,-0.0009392548818141,-9.816435813903809,0,0,28.98441505432129,1,1,1000,1000,0.319872,0,0.0009961473988369,0.0009961473988369,0.0,0,0.0009961473988369
1778782185.379928,68565063,1,0.0008194468682631,0.0010734960669651,0.0009572549024596,-9.91950510069728e-05,-0.0017255623824894,-9.81566047668457,0,0,28.98441505432129,1,1,760,800,0.319872,0,0.0009572549024596,0.0009572549024596,0.0,0,0.0009572549024596
1778782185.419912,68605047,0,0.000993030029349,0.0009868761990219,0.0010131988674402,-0.0009371495107188,-0.0001858039322542,-9.818270683288574,0,0,28.98655128479004,1,1,1000,1000,0.359856,0,0.0010131988674402,0.0010131988674402,0.0,0,0.0010131988674402
1778782185.419912,68605047,1,0.0010062652872875,0.0009530907846055,0.0008642655448056,0.0004794232954736,-0.0038584652356803,-9.816730499267578,0,0,28.98655128479004,1,1,760,800,0.359856,0,0.0008642655448056,0.0008642655448056,0.0,0,0.0008642655448056
1778782185.459896,68645031,0,0.0009596855961717,0.0009659465285949,0.0010031127603724,-0.0012722352985292,-0.0012616517487913,-9.817062377929688,0,0,28.98868560791016,1,1,1000,1000,0.39984,0,0.0010031127603724,0.0010031127603724,0.0,0,0.0010031127603724
1778782185.459896,68645031,1,0.0009536055731587,0.0009803348220884,0.000956906878855,-0.0025916525628417,-0.0016436040168628,-9.81422996520996,0,0,28.98868560791016,1,1,760,800,0.39984,0,0.000956906878855,0.000956906878855,0.0,0,0.000956906878855
1778782185.49988,68685015,0,0.0010097997728735,0.0010691010393202,0.0009662546217441,-0.0012857711408287,-0.0006662564119324,-9.817819595336914,0,0,28.99081993103028,1,1,1000,1000,0.439824,0,0.0009662546217441,0.0009662546217441,0.0,0,0.0009662546217441
1778782185.49988,68685015,1,0.0010727586923167,0.000758464098908,0.0009496592683717,-0.0023427810519933,-0.0028786677867174,-9.819697380065918,0,0,28.99081993103028,1,1,760,800,0.439824,0,0.0009496592683717,0.0009496592683717,0.0,0,0.0009496592683717
1778782185.539864,68724999,0,0.0009577472810633,0.0009494349360466,0.0009531796677038,-0.0005033835768699,0.0002436961513012,-9.817218780517578,0,0,28.992902755737305,1,1,1000,1000,0.479808,0,0.0009531796677038,0.0009531796677038,0.0,0,0.0009531796677038
1778782185.539864,68724999,1,0.0010743647580966,0.0008772140135988,0.0010284828022122,-0.0005110030760988,-0.0024948283098638,-9.817758560180664,0,0,28.992902755737305,1,1,760,800,0.479808,0,0.0010284828022122,0.0010284828022122,0.0,0,0.0010284828022122
1778782185.579848,68764983,0,0.0009569289395585,0.0009953496046364,0.0009441924048587,-0.0012577173765748,-0.0018117001745849,-9.817431449890137,0,0,28.99503517150879,1,1,1000,1000,0.519792,0,0.0009441924048587,0.0009441924048587,0.0,0,0.0009441924048587
1778782185.579848,68764983,1,0.0011365601094439,0.0010216591181233,0.0011780626373365,-0.0023969002068042,0.0003037875285372,-9.818315505981444,0,0,28.99503517150879,1,1,760,800,0.519792,0,0.0011780626373365,0.0011780626373365,0.0,0,0.0011780626373365
1778782185.619832,68804967,0,0.0009473313111811,0.0010108489077538,0.0010650221956893,-0.0014111548662185,-0.0013068423140794,-9.81874656677246,0,0,28.997169494628903,1,1,1000,1000,0.559776,0,0.0010650221956893,0.0010650221956893,0.0,0,0.0010650221956893
1778782185.619832,68804967,1,0.0008941743290051,0.0007010925328359,0.0008991155773401,-0.0012863584561273,-0.0002414530317764,-9.81861972808838,0,0,28.997169494628903,1,1,760,800,0.559776,0,0.0008991155773401,0.0008991155773401,0.0,0,0.0008991155773401
1778782185.659816,68844951,0,0.0009047393104992,0.0008997407276183,0.0010169936576858,-0.0013805112103,-2.530822530388832e-05,-9.81753635406494,0,0,28.999303817749023,1,1,1000,1000,0.59976,0,0.0010169936576858,0.0010169936576858,0.0,0,0.0010169936576858
1778782185.659816,68844951,1,0.0011604011524468,0.0011965779121965,0.0008588517084717,-0.0003452954115346,0.0024564680643379,-9.819339752197266,0,0,28.999303817749023,1,1,760,800,0.59976,0,0.0008588517084717,0.0008588517084717,0.0,0,0.0008588517084717
1778782185.6998,68884935,0,0.0010401175823062,0.000940955011174,0.0010582620743662,-0.0002496698580216,-0.0006507121142931,-9.819687843322754,0,0,29.001436233520508,1,1,1000,1000,0.639744,0,0.0010582620743662,0.0010582620743662,0.0,0,0.0010582620743662
1778782185.6998,68884935,1,0.0010535833425819,0.0009750569006428,0.0010548471473157,0.0001790618844097,-0.0021341298706829,-9.817906379699709,0,0,29.001436233520508,1,1,760,800,0.639744,0,0.0010548471473157,0.0010548471473157,0.0,0,0.0010548471473157
1778782185.739784,68924919,0,0.0009427173645235,0.0009353901259601,0.0009438558481633,-0.0014905063435435,-0.0021138216834515,-9.818645477294922,0,0,29.003570556640625,1,1,1000,1000,0.679728,0,0.0009438558481633,0.0009438558481633,0.0,0,0.0009438558481633
1778782185.739784,68924919,1,0.0009672775049693,0.0011038251686841,0.0012659084750339,-0.0005097466055303,-0.0011251000687479,-9.817235946655272,0,0,29.003570556640625,1,1,760,800,0.679728,0,0.0012659084750339,0.0012659084750339,0.0,0,0.0012659084750339
1778782185.7797682,68964903,0,0.0009207827388308,0.00099347170908,0.0009558337042108,-0.0011359468335285,-0.0009328768937848,-9.817816734313965,0,0,29.00570297241211,1,1,1000,1000,0.719712,0,0.0009558337042108,0.0009558337042108,0.0,0,0.0009558337042108
1778782185.7797682,68964903,1,0.0009190638083964,0.0009334057685919,0.0009571093833073,0.0028020851314067,-0.0015527593204751,-9.818029403686523,0,0,29.00570297241211,1,1,760,800,0.719712,0,0.0009571093833073,0.0009571093833073,0.0,0,0.0009571093833073
1778782185.8197522,69004887,0,0.0009587837848812,0.0008918792009353,0.0009305589483119,-0.0012747414875775,-0.0015163916395977,-9.817944526672363,0,0,29.0078353881836,1,1,1000,1000,0.759696,0,0.0009305589483119,0.0009305589483119,0.0,0,0.0009305589483119
1778782185.8197522,69004887,1,0.0008450364693999,0.0008864981937222,0.0008886178256943,-0.0031484002247452,-0.0023118031676858,-9.816265106201172,0,0,29.0078353881836,1,1,760,800,0.759696,0,0.0008886178256943,0.0008886178256943,0.0,0,0.0008886178256943
1778782185.8597362,69044871,0,0.0010197458323091,0.000990571686998,0.0010292138904333,-0.0020110681653022,-0.0011921327095478,-9.817174911499023,0,0,29.00996780395508,1,1,1000,1000,0.79968,0,0.0010292138904333,0.0010292138904333,0.0,0,0.0010292138904333
1778782185.8597362,69044871,1,0.0010686228051781,0.0009230384603142,0.0009201338980346,-0.0016350243240594,0.0010113132884725,-9.815571784973145,0,0,29.00996780395508,1,1,760,800,0.79968,0,0.0009201338980346,0.0009201338980346,0.0,0,0.0009201338980346
1778782185.89972,69084855,0,0.000967284257058,0.0009135470027104,0.0009780758991837,-0.0007225553854368,-0.0009518585866317,-9.816997528076172,0,0,29.01210021972656,1,1,1000,1000,0.839664,0,0.0009780758991837,0.0009780758991837,0.0,0,0.0009780758991837
1778782185.89972,69084855,1,0.0011165445903316,0.0009457903215661,0.0009833177318796,-0.001728965435177,-0.000386593514122,-9.818964004516602,0,0,29.01210021972656,1,1,760,800,0.839664,0,0.0009833177318796,0.0009833177318796,0.0,0,0.0009833177318796
1778782185.939704,69124839,0,0.0009636262548156,0.001023300923407,0.0009369570179842,-0.0016895220614969,-0.0010353940306231,-9.817608833312988,0,0,29.01423072814941,1,1,1000,1000,0.879648,0,0.0009369570179842,0.0009369570179842,0.0,0,0.0009369570179842
1778782185.939704,69124839,1,0.0009686599951237,0.0008036926155909,0.0009160907356999,0.0002268078387714,-2.1440275304485112e-05,-9.815686225891112,0,0,29.01423072814941,1,1,760,800,0.879648,0,0.0009160907356999,0.0009160907356999,0.0,0,0.0009160907356999
1778782185.979688,69164823,0,0.0010197337251156,0.0009312198380939,0.0010142686078324,-0.0014530159533023,-0.0017950042383745,-9.817153930664062,0,0,29.016361236572266,1,1,1000,1000,0.919632,0,0.0010142686078324,0.0010142686078324,0.0,0,0.0010142686078324
1778782185.979688,69164823,1,0.0007718629203736,0.0009421676513738,0.0009497212013229,-0.0011426546843722,-0.0015680514043197,-9.818090438842772,0,0,29.016361236572266,1,1,760,800,0.919632,0,0.0009497212013229,0.0009497212013229,0.0,0,0.0009497212013229
1778782186.019672,69204807,0,0.0009337732335552,0.0010334855178371,0.0009473214740864,-0.0010305632604286,-0.0017918606754392,-9.817591667175291,0,0,29.01849365234375,1,1,1000,1000,0.959616,0,0.0009473214740864,0.0009473214740864,0.0,0,0.0009473214740864
1778782186.019672,69204807,1,0.0010000243782997,0.0010073285084217,0.0009097661240957,-0.0017624156316742,-0.0002619775477796,-9.819931030273438,0,0,29.01849365234375,1,1,760,800,0.959616,0,0.0009097661240957,0.0009097661240957,0.0,0,0.0009097661240957
1778782186.059656,69244791,0,0.0009711067541502,0.0009678846108727,0.0010294661624357,-0.0012257599737495,-0.000749732600525,-9.81841278076172,0,0,29.02062225341797,1,1,1000,1000,0.9996,0,0.0010294661624357,0.0010294661624357,0.0,0,0.0010294661624357
1778782186.059656,69244791,1,0.0009508047369308,0.0009072974207811,0.00070219731424,-0.0029884739778935,-0.0001799881720216,-9.816689491271973,0,0,29.02062225341797,1,1,760,800,0.9996,0,0.00070219731424,0.00070219731424,0.0,0,0.00070219731424
1778782186.09964,69284775,0,0.0009735104395076,0.0010274251690134,0.0009539345046505,-0.0006639911443926,-0.0011388536076992,-9.8180570602417,0,0,29.022754669189453,1,1,1000,1000,1.039584,0,0.0009539345046505,0.0009539345046505,0.0,0,0.0009539345046505
1778782186.09964,69284775,1,0.0010332257952541,0.0008593111415393,0.0010379672748968,0.0006029476644471,-0.0004941052757203,-9.817559242248535,0,0,29.022754669189453,1,1,760,800,1.039584,0,0.0010379672748968,0.0010379672748968,0.0,0,0.0010379672748968
1778782186.139624,69324759,0,0.0009779806714504,0.0009798251558095,0.0010763261234387,-0.0014603737508878,-0.0011304913787171,-9.816576957702637,0,0,29.024885177612305,1,1,1000,1000,1.079568,0,0.0010763261234387,0.0010763261234387,0.0,0,0.0010763261234387
1778782186.139624,69324759,1,0.0009757953812368,0.00103183707688,0.001185510540381,-0.0024889402557164,-0.0003854020033031,-9.815902709960938,0,0,29.024885177612305,1,1,760,800,1.079568,0,0.001185510540381,0.001185510540381,0.0,0,0.001185510540381
1778782186.179608,69364743,0,0.0009259932558052,0.0009127767407335,0.0009995006257668,-0.0005884417332708,-0.0014642809983342,-9.817058563232422,0,0,29.027013778686523,1,1,1000,1000,1.119552,0,0.0009995006257668,0.0009995006257668,0.0,0,0.0009995006257668
1778782186.179608,69364743,1,0.000833841622807,0.0009213827433995,0.000859449384734,-0.0019313010852783,-0.001061302376911,-9.81549072265625,0,0,29.027013778686523,1,1,760,800,1.119552,0,0.000859449384734,0.000859449384734,0.0,0,0.000859449384734
1778782186.219592,69404727,0,0.0009640246862545,0.0009651181753724,0.0009401473798789,-0.0015583733329549,-0.0003650040307547,-9.81637191772461,0,0,29.02914428710937,1,1,1000,1000,1.159536,0,0.0009401473798789,0.0009401473798789,0.0,0,0.0009401473798789
1778782186.219592,69404727,1,0.0009795904625207,0.0010749609209597,0.0008853693725541,-0.0028387263882905,-0.0007741039735265,-9.8201265335083,0,0,29.02914428710937,1,1,760,800,1.159536,0,0.0008853693725541,0.0008853693725541,0.0,0,0.0008853693725541
1778782186.259576,69444711,0,0.0010148199507966,0.0009515249403193,0.0010594656923785,-0.0015801873523741,-0.0013572530588135,-9.817253112792969,0,0,29.0312728881836,1,1,1000,1000,1.19952,0,0.0010594656923785,0.0010594656923785,0.0,0,0.0010594656923785
1778782186.259576,69444711,1,0.0010003627976402,0.0010817651636898,0.0007665245793759,-0.0003366176679264,-0.0009025469189509,-9.816654205322266,0,0,29.0312728881836,1,1,760,800,1.19952,0,0.0007665245793759,0.0007665245793759,0.0,0,0.0007665245793759
1778782186.29956,69484695,0,0.0010171713074669,0.0009952313266694,0.0009591958951205,-0.001138016115874,-0.000962168618571,-9.817425727844238,0,0,29.03340148925781,1,1,1000,1000,1.239504,0,0.0009591958951205,0.0009591958951205,0.0,0,0.0009591958951205
1778782186.29956,69484695,1,0.0009839030681177,0.0009702467359602,0.0013673005159944,-0.0018276483751833,-0.005735061597079,-9.815752029418944,0,0,29.03340148925781,1,1,760,800,1.239504,0,0.0013673005159944,0.0013673005159944,0.0,0,0.0013673005159944
1778782186.339544,69524679,0,0.0010045028757303,0.0009327800944447,0.0009720590896904,-0.0011984771117568,-0.0010602421825751,-9.81684684753418,0,0,29.03553009033203,1,1,1000,1000,1.279488,0,0.0009720590896904,0.0009720590896904,0.0,0,0.0009720590896904
1778782186.339544,69524679,1,0.0009601535275578,0.0010096286423504,0.0010768519714474,0.0008950313786044,-0.0009278593934141,-9.818052291870115,0,0,29.03553009033203,1,1,760,800,1.279488,0,0.0010768519714474,0.0010768519714474,0.0,0,0.0010768519714474
1778782186.379528,69564663,0,0.0010198411764577,0.0010069385170936,0.0009242857340723,-0.0001428870746167,-0.0019542963709682,-9.817512512207031,0,0,29.03765869140625,1,1,1000,1000,1.319472,0,0.0009242857340723,0.0009242857340723,0.0,0,0.0009242857340723
1778782186.379528,69564663,1,0.0009380172705277,0.0009796821977943,0.0011245760833844,0.0004717628180515,-0.0010010983096435,-9.816959381103516,0,0,29.03765869140625,1,1,760,800,1.319472,0,0.0011245760833844,0.0011245760833844,0.0,0,0.0011245760833844
1778782186.419512,69604647,0,0.000947569264099,0.0009365986334159,0.0011047759326174,-0.0007472469005733,-0.0008746411767788,-9.818294525146484,0,0,29.03978729248047,1,1,1000,1000,1.359456,0,0.0011047759326174,0.0011047759326174,0.0,0,0.0011047759326174
1778782186.419512,69604647,1,0.001196909812279,0.0009879218414425,0.0008009156445041,-0.0011286406079307,0.0010332314996048,-9.81778621673584,0,0,29.03978729248047,1,1,760,800,1.359456,0,0.0008009156445041,0.0008009156445041,0.0,0,0.0008009156445041
1778782186.459496,69644631,0,0.0010351322125643,0.0010007410310208,0.001043310156092,-0.0009192056604661,-0.0012606724631041,-9.817028999328612,0,0,29.041915893554688,1,1,1000,1000,1.39944,0,0.001043310156092,0.001043310156092,0.0,0,0.001043310156092
1778782186.459496,69644631,1,0.0009151157573796,0.000975721864961,0.0010396032594144,-0.0021038562990725,-0.0009844859596341,-9.816585540771484,0,0,29.041915893554688,1,1,760,800,1.39944,0,0.0010396032594144,0.0010396032594144,0.0,0,0.0010396032594144
1778782186.49948,69684615,0,0.000958445481956,0.0009409650228917,0.000881721090991,-0.0008268571691587,-0.0009850587230175,-9.817087173461914,0,0,29.04404258728028,1,1,1000,1000,1.439424,0,0.000881721090991,0.000881721090991,0.0,0,0.000881721090991
1778782186.49948,69684615,1,0.0009775130311027,0.0011416010092943,0.0011346419341862,-0.0016176679637283,-0.0006123092607595,-9.817587852478027,0,0,29.04404258728028,1,1,760,800,1.439424,0,0.0011346419341862,0.0011346419341862,0.0,0,0.0011346419341862
1778782186.539464,69724599,0,0.0009880047291517,0.0009664521785452,0.0009933947585523,-0.0006519042071886,-0.0004522510571405,-9.817325592041016,0,0,29.04616928100586,1,1,1000,1000,1.479408,0,0.0009933947585523,0.0009933947585523,0.0,0,0.0009933947585523
1778782186.539464,69724599,1,0.0007376240100711,0.0009568610694259,0.0009263485553674,-0.0004740632139146,3.18354504997842e-05,-9.816842079162598,0,0,29.04616928100586,1,1,760,800,1.479408,0,0.0009263485553674,0.0009263485553674,0.0,0,0.0009263485553674
1778782186.5794482,69764583,0,0.0009642175282351,0.0010694180382415,0.0010413244599476,-0.0014302260242402,-0.0011444174451753,-9.818320274353027,0,0,29.04829788208008,1,1,1000,1000,1.519392,0,0.0010413244599476,0.0010413244599476,0.0,0,0.0010413244599476
1778782186.5794482,69764583,1,0.0008791256695985,0.0010243692668154,0.0008575458195991,-0.0008239664020948,0.000299686420476,-9.817121505737305,0,0,29.04829788208008,1,1,760,800,1.519392,0,0.0008575458195991,0.0008575458195991,0.0,0,0.0008575458195991
1778782186.6194322,69804567,0,0.0009946388890966,0.0009800397092476,0.0010182610712945,-0.0006521706236526,-0.0012848596088588,-9.816723823547363,0,0,29.050424575805664,1,1,1000,1000,1.559376,0,0.0010182610712945,0.0010182610712945,0.0,0,0.0010182610712945
1778782186.6194322,69804567,1,0.0011458754306659,0.0008233917178586,0.0011629892978817,-0.0003408804768696,-0.0013761159498244,-9.816486358642578,0,0,29.050424575805664,1,1,760,800,1.559376,0,0.0011629892978817,0.0011629892978817,0.0,0,0.0011629892978817
1778782186.6594162,69844551,0,0.0010111574083566,0.0010041542118415,0.0010161339305341,-0.0006087011424824,-0.001222304534167,-9.818031311035156,0,0,29.052549362182617,1,1,1000,1000,1.59936,0,0.0010161339305341,0.0010161339305341,0.0,0,0.0010161339305341
1778782186.6594162,69844551,1,0.0008770546410232,0.0009046902414411,0.0008972691139206,0.0004843101778533,0.0006924703484401,-9.819272994995115,0,0,29.052549362182617,1,1,760,800,1.59936,0,0.0008972691139206,0.0008972691139206,0.0,0,0.0008972691139206
1778782186.6994,69884535,0,0.0009974061977118,0.0009629706619307,0.0010358729632571,-0.001515683485195,-0.0011353099253028,-9.816645622253418,0,0,29.054676055908203,1,1,1000,1000,1.639344,0,0.0010358729632571,0.0010358729632571,0.0,0,0.0010358729632571
1778782186.6994,69884535,1,0.0010333033278584,0.0008693003910593,0.0011456332867965,-0.0003786054148804,-0.0011985785095021,-9.816617965698242,0,0,29.054676055908203,1,1,760,800,1.639344,0,0.0011456332867965,0.0011456332867965,0.0,0,0.0011456332867965
1778782186.739384,69924519,0,0.0010273072402924,0.0010226673912256,0.000936270749662,-0.0013768099015578,-0.000823252601549,-9.81672477722168,0,0,29.05680084228516,1,1,1000,1000,1.679328,0,0.000936270749662,0.000936270749662,0.0,0,0.000936270749662
1778782186.739384,69924519,1,0.0007404627976939,0.0010264243464916,0.0008223355398513,0.0011731245322152,-0.0011527468450367,-9.816306114196776,0,0,29.05680084228516,1,1,760,800,1.679328,0,0.0008223355398513,0.0008223355398513,0.0,0,0.0008223355398513
1778782186.779368,69964503,0,0.0010405227076262,0.0009497181163169,0.0009206961840391,-0.0019215813372284,-0.0003264459082856,-9.817708969116213,0,0,29.058927536010746,1,1,1000,1000,1.719312,0,0.0009206961840391,0.0009206961840391,0.0,0,0.0009206961840391
1778782186.779368,69964503,1,0.0009382373536936,0.0008404829422943,0.000696207571309,-0.0033547047059983,-8.272226114058867e-05,-9.818102836608888,0,0,29.058927536010746,1,1,760,800,1.719312,0,0.000696207571309,0.000696207571309,0.0,0,0.000696207571309
1778782186.819352,70004487,0,0.0009539523744024,0.0009931210661306,0.0009719001827761,0.0003713987825904,-0.0016007057856768,-9.817456245422363,0,0,29.06105232238769,1,1,1000,1000,1.759296,0,0.0009719001827761,0.0009719001827761,0.0,0,0.0009719001827761
1778782186.819352,70004487,1,0.0010364098707213,0.0008134797681123,0.0010003307834267,0.0003509524976834,0.0011569414054974,-9.818477630615234,0,0,29.06105232238769,1,1,760,800,1.759296,0,0.0010003307834267,0.0010003307834267,0.0,0,0.0010003307834267
1778782186.859336,70044471,0,0.0009332648478448,0.0009194479207508,0.0009595120791345,-0.0011571530485525,-0.0019045282388105,-9.816539764404297,0,0,29.06317901611328,1,1,1000,1000,1.79928,0,0.0009595120791345,0.0009595120791345,0.0,0,0.0009595120791345
1778782186.859336,70044471,1,0.0007858158787712,0.0007445134688168,0.0008388042915612,-0.001757672871463,-0.0034202602691948,-9.818282127380373,0,0,29.06317901611328,1,1,760,800,1.79928,0,0.0008388042915612,0.0008388042915612,0.0,0,0.0008388042915612
1778782186.89932,70084455,0,0.0010812843684107,0.0009897587588056,0.0009294068440794,-0.0008044526330195,-0.0011586570180952,-9.817659378051758,0,0,29.065303802490234,1,1,1000,1000,1.839264,0,0.0009294068440794,0.0009294068440794,0.0,0,0.0009294068440794
1778782186.89932,70084455,1,0.0008854276384226,0.0009128414676524,0.0008367960108444,-0.0010646403534337,0.000699475640431,-9.817028045654297,0,0,29.065303802490234,1,1,760,800,1.839264,0,0.0008367960108444,0.0008367960108444,0.0,0,0.0008367960108444
1778782186.939304,70124439,0,0.0010053047444671,0.0009884678293019,0.0009704441181384,-0.0003711783210746,-0.0004423720529302,-9.8174467086792,0,0,29.067428588867188,1,1,1000,1000,1.879248,0,0.0009704441181384,0.0009704441181384,0.0,0,0.0009704441181384
1778782186.939304,70124439,1,0.0009714014595374,0.0009304284467361,0.0010683679720386,-0.0005039499374106,-0.0017835419857874,-9.819171905517578,0,0,29.067428588867188,1,1,760,800,1.879248,0,0.0010683679720386,0.0010683679720386,0.0,0,0.0010683679720386
1778782186.979288,70164423,0,0.0009453748352825,0.0009420182323083,0.0009399250848218,-0.0001643631112528,-0.0004014111182186,-9.818330764770508,0,0,29.069551467895508,1,1,1000,1000,1.919232,0,0.0009399250848218,0.0009399250848218,0.0,0,0.0009399250848218
1778782186.979288,70164423,1,0.0009911700617522,0.0011799494968727,0.0009511179523542,-0.0038414553273469,-0.0016934296581894,-9.817327499389648,0,0,29.069551467895508,1,1,760,800,1.919232,0,0.0009511179523542,0.0009511179523542,0.0,0,0.0009511179523542
1778782187.019272,70204407,0,0.0010269681224599,0.0009375912486575,0.001061386312358,-0.0003429515054449,-0.0013597125653177,-9.817520141601562,0,0,29.071674346923828,1,1,1000,1000,1.959216,0,0.001061386312358,0.001061386312358,0.0,0,0.001061386312358
1778782187.019272,70204407,1,0.0010390237439423,0.0011685171630233,0.0010816411813721,-0.0020072341430932,-0.001485483138822,-9.817943572998049,0,0,29.071674346923828,1,1,760,800,1.959216,0,0.0010816411813721,0.0010816411813721,0.0,0,0.0010816411813721
1778782187.059256,70244391,0,0.0009982467163354,0.0010029898257926,0.0009901958983391,-0.0010103887179866,-0.001730945543386,-9.818033218383787,0,0,29.07379913330078,1,1,1000,1000,1.9992,0,0.0009901958983391,0.0009901958983391,0.0,0,0.0009901958983391
1778782187.059256,70244391,1,0.0013245327863842,0.0009433353552594,0.0010762884048745,-0.0025246473960578,-0.0010080995270982,-9.816515922546388,0,0,29.07379913330078,1,1,760,800,1.9992,0,0.0010762884048745,0.0010762884048745,0.0,0,0.0010762884048745
1778782187.09924,70284375,0,0.0009768870659172,0.0009657312766648,0.000965176091995,-0.0014574120286852,-0.0014833471504971,-9.817671775817873,0,0,29.07592391967773,1,1,1000,1000,2.039184,0,0.000965176091995,0.000965176091995,0.0,0,0.000965176091995
1778782187.09924,70284375,1,0.0010034525766968,0.0010117964120581,0.0011865149717777,-0.0001014344597933,6.545381620526314e-05,-9.81806755065918,0,0,29.07592391967773,1,1,760,800,2.039184,0,0.0011865149717777,0.0011865149717777,0.0,0,0.0011865149717777
1778782187.139224,70324359,0,0.0010492375586181,0.0009713630424812,0.0010441243648529,-0.0009294972987845,-0.0010138145880773,-9.817633628845217,0,0,29.078044891357425,1,1,1000,1000,2.079168,0,0.0010441243648529,0.0010441243648529,0.0,0,0.0010441243648529
1778782187.139224,70324359,1,0.000995022826828,0.0008796916226856,0.0010781588498502,-0.0005948726320639,-0.0011285750661045,-9.815343856811523,0,0,29.078044891357425,1,1,760,800,2.079168,0,0.0010781588498502,0.0010781588498502,0.0,0,0.0010781588498502
1778782187.180041,70365176,0,0.0009552733972668,0.0009527133661322,0.0010322445305064,-0.0013325370382517,-0.0010606077266857,-9.817166328430176,0,0,29.08016967773437,1,1,1000,1000,2.119985,0,0.0010322445305064,0.0010322445305064,0.0,0,0.0010322445305064
1778782187.180041,70365176,1,0.001087412238121,0.0009496900602243,0.0008169925422407,-0.0021237630862742,-0.0007123118848539,-9.816253662109377,0,0,29.08016967773437,1,1,760,800,2.119985,0,0.0008169925422407,0.0008169925422407,0.0,0,0.0008169925422407
1778782187.220025,70405160,0,0.0009953225962817,0.0010377204744145,0.0010822601616382,-0.0014375391183421,-0.0019186411518603,-9.817994117736816,0,0,29.082290649414062,1,1,1000,1000,2.159969,0,0.0010822601616382,0.0010822601616382,0.0,0,0.0010822601616382
1778782187.220025,70405160,1,0.0006700903759337,0.0007389414822682,0.0009227924747392,-9.673286695033312e-05,-0.0009918909054249,-9.816969871520996,0,0,29.082290649414062,1,1,760,800,2.159969,0,0.0009227924747392,0.0009227924747392,0.0,0,0.0009227924747392
1778782187.260009,70445144,0,0.0010107188718393,0.0008830249425955,0.001030416926369,-0.0012380725238472,-0.0014558713883161,-9.817073822021484,0,0,29.084413528442383,1,1,1000,1000,2.199953,0,0.001030416926369,0.001030416926369,0.0,0,0.001030416926369
1778782187.260009,70445144,1,0.0012843499425798,0.0010059052146971,0.001025257166475,-0.0013701358111575,-0.001848971704021,-9.816377639770508,0,0,29.084413528442383,1,1,760,800,2.199953,0,0.001025257166475,0.001025257166475,0.0,0,0.001025257166475
1778782187.299993,70485128,0,0.0009447635384276,0.0010182949481531,0.0010588717414066,-0.001722493674606,-0.0008292183629237,-9.81707000732422,0,0,29.08653450012207,1,1,1000,1000,2.239937,0,0.0010588717414066,0.0010588717414066,0.0,0,0.0010588717414066
1778782187.299993,70485128,1,0.0010659672552719,0.0009717222419567,0.0009785247966647,-0.0027192160487174,-0.0011689169332385,-9.815905570983888,0,0,29.08653450012207,1,1,760,800,2.239937,0,0.0009785247966647,0.0009785247966647,0.0,0,0.0009785247966647
1778782187.339977,70525112,0,0.0010247436584904,0.0010194627102464,0.0009386866586282,-0.0002721510245464,-0.0013653587084263,-9.817214965820312,0,0,29.08865737915039,1,1,1000,1000,2.279921,0,0.0009386866586282,0.0009386866586282,0.0,0,0.0009386866586282
1778782187.339977,70525112,1,0.0009756429935805,0.0010335965780541,0.0011476319050416,0.0009782395791262,-0.000974423775915,-9.816730499267578,0,0,29.08865737915039,1,1,760,800,2.279921,0,0.0011476319050416,0.0011476319050416,0.0,0,0.0011476319050416
1778782187.379961,70565096,0,0.0009841964347288,0.001046197139658,0.0009727218421176,-0.0010131356539204,-0.0002426048740744,-9.817144393920898,0,0,29.09077835083008,1,1,1000,1000,2.319905,0,0.0009727218421176,0.0009727218421176,0.0,0,0.0009727218421176
1778782187.379961,70565096,1,0.0012301537208259,0.0011938844108954,0.000977631425485,-0.0015458851121366,0.0008880749810487,-9.817797660827637,0,0,29.09077835083008,1,1,760,800,2.319905,0,0.000977631425485,0.000977631425485,0.0,0,0.000977631425485
1778782187.419945,70605080,0,0.0010228999890387,0.0009773045312613,0.0010004320647567,-0.0015157357556745,-0.0027251017745584,-9.81796169281006,0,0,29.09289932250977,1,1,1000,1000,2.359889,0,0.0010004320647567,0.0010004320647567,0.0,0,0.0010004320647567
1778782187.419945,70605080,1,0.0009543593041598,0.0009395168162882,0.0009439195273444,0.0026663895696401,0.0012585223885253,-9.81503677368164,0,0,29.09289932250977,1,1,760,800,2.359889,0,0.0009439195273444,0.0009439195273444,0.0,0,0.0009439195273444
1778782187.4599292,70645064,0,0.0010589060839265,0.0009720058878883,0.0009500506566837,-0.0007755806436762,-0.0009360606200061,-9.817564010620115,0,0,29.09507369995117,1,1,1000,1000,2.399873,0,0.0009500506566837,0.0009500506566837,0.0,0,0.0009500506566837
1778782187.4599292,70645064,1,0.0010749613866209,0.0009114062413573,0.0010069219861179,-0.00192904449068,0.0003326559381093,-9.81747817993164,0,0,29.09507369995117,1,1,760,800,2.399873,0,0.0010069219861179,0.0010069219861179,0.0,0,0.0010069219861179
1778782187.4999132,70685048,0,0.0010019156616181,0.0010208517778664,0.0010531842708587,-0.0003526668879203,-0.0014572421787306,-9.817349433898926,0,0,29.09719467163086,1,1,1000,1000,2.439857,0,0.0010531842708587,0.0010531842708587,0.0,0,0.0010531842708587
1778782187.4999132,70685048,1,0.0007677610265091,0.0010387613438069,0.0009762888075783,0.0004607648879755,0.0002668564266059,-9.819464683532717,0,0,29.09719467163086,1,1,760,800,2.439857,0,0.0009762888075783,0.0009762888075783,0.0,0,0.0009762888075783
1778782187.5398972,70725032,0,0.0009997601155191,0.0009530025999993,0.0010636845836415,-0.0010958272032439,-0.0006313595222309,-9.818527221679688,0,0,29.09931373596192,1,1,1000,1000,2.479841,0,0.0010636845836415,0.0010636845836415,0.0,0,0.0010636845836415
1778782187.5398972,70725032,1,0.0009131603292189,0.0011194192338734,0.0009856288088485,-0.0009664579993113,-0.000176170738996,-9.819598197937012,0,0,29.09931373596192,1,1,760,800,2.479841,0,0.0009856288088485,0.0009856288088485,0.0,0,0.0009856288088485
1778782187.5798812,70765016,0,0.0009524913621135,0.0009762437548488,0.0009608211694285,-0.001413540681824,-0.0008817196357995,-9.819005012512209,0,0,29.10143280029297,1,1,1000,1000,2.519825,0,0.0009608211694285,0.0009608211694285,0.0,0,0.0009608211694285
1778782187.5798812,70765016,1,0.001013180357404,0.0009310193709097,0.0010886277304962,-0.000630400434602,-0.002260276582092,-9.814898490905762,0,0,29.10143280029297,1,1,760,800,2.519825,0,0.0010886277304962,0.0010886277304962,0.0,0,0.0010886277304962
1778782187.6198652,70805000,0,0.0009331637993454,0.0009667776757851,0.0010448200628161,-0.0008745491504669,-0.0016925269737839,-9.817687034606934,0,0,29.103553771972656,1,1,1000,1000,2.559809,0,0.0010448200628161,0.0010448200628161,0.0,0,0.0010448200628161
1778782187.6198652,70805000,1,0.0009383111028,0.0011426818091422,0.0010437523014843,-0.0030082867015153,-0.000508380238898,-9.816495895385742,0,0,29.103553771972656,1,1,760,800,2.559809,0,0.0010437523014843,0.0010437523014843,0.0,0,0.0010437523014843
1778782187.6598492,70844984,0,0.0010384742636233,0.0009938270086422,0.0009435628307983,-0.0004288735217414,-0.0021196184679865,-9.817767143249512,0,0,29.105619430541992,1,1,1000,1000,2.599793,0,0.0009435628307983,0.0009435628307983,0.0,0,0.0009435628307983
1778782187.6598492,70844984,1,0.0009374353685416,0.0010880823247134,0.0010566350538283,-0.0024186598602682,-0.0025731991045176,-9.816146850585938,0,0,29.105619430541992,1,1,760,800,2.599793,0,0.0010566350538283,0.0010566350538283,0.0,0,0.0010566350538283
1778782187.6998332,70884968,0,0.0009487724746577,0.000991809181869,0.0010645759757608,-0.0007305777398869,-0.0017186565091833,-9.816535949707031,0,0,29.107738494873047,1,1,1000,1000,2.639777,0,0.0010645759757608,0.0010645759757608,0.0,0,0.0010645759757608
1778782187.6998332,70884968,1,0.0012474569957703,0.0008115571690723,0.0009607124375179,-0.0017694622511044,-0.0009957903530448,-9.81650161743164,0,0,29.107738494873047,1,1,760,800,2.639777,0,0.0009607124375179,0.0009607124375179,0.0,0,0.0009607124375179
1778782187.7398171,70924952,0,0.0010460928315296,0.0009549796814098,0.0009575865697115,-0.0015058164717629,-0.0004451966960914,-9.81655979156494,0,0,29.10985946655273,1,1,1000,1000,2.679761,0,0.0009575865697115,0.0009575865697115,0.0,0,0.0009575865697115
1778782187.7398171,70924952,1,0.0011143336305394,0.0010768722277134,0.0008749627158977,0.0008583003655076,-0.0009033937822096,-9.818035125732422,0,0,29.10985946655273,1,1,760,800,2.679761,0,0.0008749627158977,0.0008749627158977,0.0,0,0.0008749627158977
1778782187.7798011,70964936,0,0.0010511321015655,0.0010519050993025,0.0009792956989258,-0.0004879203042946,-0.000881340005435,-9.81710147857666,0,0,29.11197662353516,1,1,1000,1000,2.719745,0,0.0009792956989258,0.0009792956989258,0.0,0,0.0009792956989258
1778782187.7798011,70964936,1,0.0008669384988024,0.0012384603032842,0.0011100803967565,-0.0030836667865514,-0.0014284758362919,-9.817679405212402,0,0,29.11197662353516,1,1,760,800,2.719745,0,0.0011100803967565,0.0011100803967565,0.0,0,0.0011100803967565
1778782187.819785,71004920,0,0.0009789457544684,0.0009962208569049,0.0009859704878181,-0.0006850338540971,-0.0015841899439692,-9.816766738891602,0,0,29.11409378051757,1,1,1000,1000,2.759729,0,0.0009859704878181,0.0009859704878181,0.0,0,0.0009859704878181
1778782187.819785,71004920,1,0.0010663336142897,0.0009849779307842,0.0007024160586297,-0.000447794329375,-0.0016897657187655,-9.81800365447998,0,0,29.11409378051757,1,1,760,800,2.759729,0,0.0007024160586297,0.0007024160586297,0.0,0,0.0007024160586297
1778782187.859769,71044904,0,0.0009877416305243,0.0009455464896745,0.0010301064467057,-0.0007589029264636,-0.0005999560235068,-9.81745433807373,0,0,29.1162109375,1,1,1000,1000,2.799713,0,0.0010301064467057,0.0010301064467057,0.0,0,0.0010301064467057
1778782187.859769,71044904,1,0.0010760225122794,0.0012390438932925,0.0009923061588779,0.000408356252592,-0.0018805169966071,-9.81689453125,0,0,29.1162109375,1,1,760,800,2.799713,0,0.0009923061588779,0.0009923061588779,0.0,0,0.0009923061588779
1778782187.899753,71084888,0,0.0010031951824203,0.0009514827397651,0.0010324019240215,-0.0011324390070512,-0.001415119622834,-9.818842887878418,0,0,29.11833000183105,1,1,1000,1000,2.839697,0,0.0010324019240215,0.0010324019240215,0.0,0,0.0010324019240215
1778782187.899753,71084888,1,0.0008108492475003,0.0008778673363849,0.001091341371648,-0.000680687429849,-0.0015293075703084,-9.818780899047852,0,0,29.11833000183105,1,1,760,800,2.839697,0,0.001091341371648,0.001091341371648,0.0,0,0.001091341371648
1778782187.939737,71124872,0,0.0010427222587168,0.000980794429779,0.0009920268785208,-0.0013310991926118,-0.0002583099994808,-9.817981719970703,0,0,29.12044715881348,1,1,1000,1000,2.879681,0,0.0009920268785208,0.0009920268785208,0.0,0,0.0009920268785208
1778782187.939737,71124872,1,0.0012745297281071,0.0010745726758614,0.0011561547871679,-0.0003818451077677,-0.0023301797918975,-9.81576156616211,0,0,29.12044715881348,1,1,760,800,2.879681,0,0.0011561547871679,0.0011561547871679,0.0,0,0.0011561547871679
1778782187.979721,71164856,0,0.0010583547409623,0.0010087382979691,0.0009788015158846,-0.0016917861066758,-0.0011685078497976,-9.818304061889648,0,0,29.1225643157959,1,1,1000,1000,2.919665,0,0.0009788015158846,0.0009788015158846,0.0,0,0.0009788015158846
1778782187.979721,71164856,1,0.0011925770668312,0.0011237405706197,0.0012555173598229,-0.0026953513734042,0.0004606576985679,-9.817708969116213,0,0,29.1225643157959,1,1,760,800,2.919665,0,0.0012555173598229,0.0012555173598229,0.0,0,0.0012555173598229
1778782188.019705,71204840,0,0.0010453348513692,0.0009954946581274,0.001019618823193,-0.0011159324785694,-0.0003070007078349,-9.816993713378906,0,0,29.12468147277832,1,1,1000,1000,2.959649,0,0.001019618823193,0.001019618823193,0.0,0,0.001019618823193
1778782188.019705,71204840,1,0.0007887027459219,0.0008882888359948,0.0011911893961951,0.002444181125611,-0.0006555998697876,-9.816713333129885,0,0,29.12468147277832,1,1,760,800,2.959649,0,0.0011911893961951,0.0011911893961951,0.0,0,0.0011911893961951
1778782188.059689,71244824,0,0.0010513811139389,0.0010844056960195,0.0009857125114649,-0.0022637287620455,-0.0004593065823428,-9.816749572753906,0,0,29.12679672241211,1,1,1000,1000,2.999633,0,0.0009857125114649,0.0009857125114649,0.0,0,0.0009857125114649
1778782188.059689,71244824,1,0.0009741971152834,0.0010941168293356,0.0009154576109722,-0.0024165962822735,-0.0019437584560364,-9.816041946411133,0,0,29.12679672241211,1,1,760,800,2.999633,0,0.0009154576109722,0.0009154576109722,0.0,0,0.0009154576109722
1778782188.099673,71284808,0,0.0009896688861772,0.000950246816501,0.0010239639086648,-0.0022692398633807,-0.0021139131858944,-9.818608283996582,0,0,29.12891387939453,1,1,1000,1000,3.039617,0,0.0010239639086648,0.0010239639086648,0.0,0,0.0010239639086648
1778782188.099673,71284808,1,0.0010639645624905,0.0010350898373872,0.0010123817482963,-0.0008606815827079,0.0002175698755308,-9.81680965423584,0,0,29.12891387939453,1,1,760,800,3.039617,0,0.0010123817482963,0.0010123817482963,0.0,0,0.0010123817482963
1778782188.139657,71324792,0,0.0009874097304418,0.0010088888229802,0.0009932621615007,-0.0009257699130102,-0.0002645609492901,-9.816102981567385,0,0,29.13103103637696,1,1,1000,1000,3.079601,0,0.0009932621615007,0.0009932621615007,0.0,0,0.0009932621615007
1778782188.139657,71324792,1,0.0010217365343123,0.0009846973698586,0.0010411444818601,-0.0025098929181694,-0.0016760777216404,-9.816109657287598,0,0,29.13103103637696,1,1,760,800,3.079601,0,0.0010411444818601,0.0010411444818601,0.0,0,0.0010411444818601
1778782188.179641,71364776,0,0.0010058309417217,0.0010431540431454,0.0010039204498752,-0.0011588000925257,-0.0007655640365555,-9.81706428527832,0,0,29.133146286010746,1,1,1000,1000,3.119585,0,0.0010039204498752,0.0010039204498752,0.0,0,0.0010039204498752
1778782188.179641,71364776,1,0.0009248058777302,0.0010235669324174,0.0010049936827272,-0.0026020121295005,-0.0007754341932013,-9.815725326538086,0,0,29.133146286010746,1,1,760,800,3.119585,0,0.0010049936827272,0.0010049936827272,0.0,0,0.0010049936827272
1778782188.219625,71404760,0,0.0010668328031897,0.0010426617227494,0.0009773997589945,-0.0012350397882983,-0.0002564967726357,-9.816308975219728,0,0,29.13526153564453,1,1,1000,1000,3.159569,0,0.0009773997589945,0.0009773997589945,0.0,0,0.0009773997589945
1778782188.219625,71404760,1,0.0008805012330412,0.0008975389646366,0.0008825003169476,-7.183891284512356e-05,-0.0013846503570675,-9.818187713623049,0,0,29.13526153564453,1,1,760,800,3.159569,0,0.0008825003169476,0.0008825003169476,0.0,0,0.0008825003169476
1778782188.2596092,71444744,0,0.0009971170220524,0.0010079307248815,0.0009948688093572,-0.0016825690399855,-0.0004523991956375,-9.817102432250977,0,0,29.13737678527832,1,1,1000,1000,3.199553,0,0.0009948688093572,0.0009948688093572,0.0,0,0.0009948688093572
1778782188.2596092,71444744,1,0.0007535484619438,0.0008849838050082,0.0013671871274709,-0.002210256177932,0.0010081033688038,-9.81946086883545,0,0,29.13737678527832,1,1,760,800,3.199553,0,0.0013671871274709,0.0013671871274709,0.0,0,0.0013671871274709
1778782188.2995932,71484728,0,0.0009484565234743,0.0009517223807051,0.0009641959914006,-0.0009006334003061,-0.0004361647297628,-9.818422317504885,0,0,29.13949203491211,1,1,1000,1000,3.239537,0,0.0009641959914006,0.0009641959914006,0.0,0,0.0009641959914006
1778782188.2995932,71484728,1,0.0009563901112414,0.0009896531701087,0.0009405673481523,4.278754204278812e-05,-0.0005251223919913,-9.818140983581545,0,0,29.13949203491211,1,1,760,800,3.239537,0,0.0009405673481523,0.0009405673481523,0.0,0,0.0009405673481523
1778782188.3395772,71524712,0,0.0010416728910058,0.0009987723315134,0.0010444866493344,-0.000937350501772,-0.0004918727790936,-9.816542625427246,0,0,29.141605377197266,1,1,1000,1000,3.279521,0,0.0010444866493344,0.0010444866493344,0.0,0,0.0010444866493344
1778782188.3395772,71524712,1,0.0008211858803406,0.0008781144279055,0.0009457950945943,-0.0018141911132261,-0.0012689979048445,-9.82095718383789,0,0,29.141605377197266,1,1,760,800,3.279521,0,0.0009457950945943,0.0009457950945943,0.0,0,0.0009457950945943
1778782188.3795612,71564696,0,0.0009301770478487,0.0010155488271266,0.0011071464978158,-0.0006532419356517,-0.0003910770756192,-9.817618370056152,0,0,29.14372062683105,1,1,1000,1000,3.319505,0,0.0011071464978158,0.0011071464978158,0.0,0,0.0011071464978158
1778782188.3795612,71564696,1,0.0009791085030883,0.0009173818398267,0.0010070216376334,-0.0009034790564328,-0.0038988168817013,-9.818017959594728,0,0,29.14372062683105,1,1,760,800,3.319505,0,0.0010070216376334,0.0010070216376334,0.0,0,0.0010070216376334
1778782188.4195452,71604680,0,0.0010093817254528,0.0009678039932623,0.0009991666302084,-0.0013529709540307,-0.0008162150043062,-9.817392349243164,0,0,29.14583396911621,1,1,1000,1000,3.359489,0,0.0009991666302084,0.0009991666302084,0.0,0,0.0009991666302084
1778782188.4195452,71604680,1,0.0008807111298665,0.0008810863364487,0.001132040284574,-0.0026232269592583,-0.0011382387019693,-9.817253112792969,0,0,29.14583396911621,1,1,760,800,3.359489,0,0.001132040284574,0.001132040284574,0.0,0,0.001132040284574
1778782188.4595292,71644664,0,0.0010033239377662,0.001049903454259,0.0010729702189564,-0.0005531618953682,-0.0012967870570719,-9.817606925964355,0,0,29.14794921875,1,1,1000,1000,3.399473,0,0.0010729702189564,0.0010729702189564,0.0,0,0.0010729702189564
1778782188.4595292,71644664,1,0.0009982358897104,0.0011206886265426,0.0009881041478365,-0.0002441690594423,-0.0033460999839007,-9.820394515991213,0,0,29.14794921875,1,1,760,800,3.399473,0,0.0009881041478365,0.0009881041478365,0.0,0,0.0009881041478365
1778782188.4995131,71684648,0,0.0010090086143463,0.0009399205446243,0.0009876283584162,-0.0006561866612173,-0.0017057966906577,-9.818910598754885,0,0,29.15006256103516,1,1,1000,1000,3.439457,0,0.0009876283584162,0.0009876283584162,0.0,0,0.0009876283584162
1778782188.4995131,71684648,1,0.0009693230967968,0.0010574404150247,0.0008330940036103,-0.0037757540121674,0.0006949998787604,-9.816906929016112,0,0,29.15006256103516,1,1,760,800,3.439457,0,0.0008330940036103,0.0008330940036103,0.0,0,0.0008330940036103
1778782188.5394971,71724632,0,0.0010611183242872,0.0011057128431275,0.001012269873172,0.0001273943635169,-0.0009775222279131,-9.816672325134276,0,0,29.152175903320312,1,1,1000,1000,3.479441,0,0.001012269873172,0.001012269873172,0.0,0,0.001012269873172
1778782188.5394971,71724632,1,0.000816568150185,0.0010263957083225,0.0012959167361259,-0.0015446873148903,-0.0011383213568478,-9.817630767822266,0,0,29.152175903320312,1,1,760,800,3.479441,0,0.0012959167361259,0.0012959167361259,0.0,0,0.0012959167361259
1778782188.5794811,71764616,0,0.0008866262505762,0.0009594367584213,0.0010458412580192,-0.002168915932998,-0.0009721817914396,-9.817861557006836,0,0,29.15428733825684,1,1,1000,1000,3.519425,0,0.0010458412580192,0.0010458412580192,0.0,0,0.0010458412580192
1778782188.5794811,71764616,1,0.0010960050858557,0.0010739200515672,0.0010160863166674,-0.0023038641083985,-0.0014306813245639,-9.818792343139648,0,0,29.15428733825684,1,1,760,800,3.519425,0,0.0010160863166674,0.0010160863166674,0.0,0,0.0010160863166674
1778782188.619465,71804600,0,0.0010104663670063,0.0009891202207654,0.0010039056651294,-0.0021535158157348,-0.0001990832970477,-9.817282676696776,0,0,29.156400680541992,1,1,1000,1000,3.559409,0,0.0010039056651294,0.0010039056651294,0.0,0,0.0010039056651294
1778782188.619465,71804600,1,0.0007885413942858,0.0011131990468129,0.0010673715732991,-0.0012889985227957,-0.0007095073233358,-9.817169189453123,0,0,29.156400680541992,1,1,760,800,3.559409,0,0.0010673715732991,0.0010673715732991,0.0,0,0.0010673715732991
1778782188.659449,71844584,0,0.0010182941332459,0.0010250979103147,0.0010701577411964,-0.0009023420279845,0.0003853339876513,-9.81796646118164,0,0,29.15851211547852,1,1,1000,1000,3.599393,0,0.0010701577411964,0.0010701577411964,0.0,0,0.0010701577411964
1778782188.659449,71844584,1,0.0008713335264474,0.0009682544623501,0.000983327277936,-0.0023265182971954,-0.001661735586822,-9.817458152770996,0,0,29.15851211547852,1,1,760,800,3.599393,0,0.000983327277936,0.000983327277936,0.0,0,0.000983327277936
1778782188.699433,71884568,0,0.001057626795955,0.0009770522592589,0.0009925013873726,-0.0023724765051156,-0.0016900689806789,-9.816301345825195,0,0,29.160625457763672,1,1,1000,1000,3.639377,0,0.0009925013873726,0.0009925013873726,0.0,0,0.0009925013873726
1778782188.699433,71884568,1,0.000945670180954,0.0011582493316382,0.001192046678625,-0.0002013601188082,-0.0021962039172649,-9.817245483398438,0,0,29.160625457763672,1,1,760,800,3.639377,0,0.001192046678625,0.001192046678625,0.0,0,0.001192046678625
1778782188.739417,71924552,0,0.0010237933602184,0.0010617051739245,0.0010053213918581,-0.0005750731215812,-0.0015896779950708,-9.816997528076172,0,0,29.162736892700195,1,1,1000,1000,3.679361,0,0.0010053213918581,0.0010053213918581,0.0,0,0.0010053213918581
1778782188.739417,71924552,1,0.0010371441021561,0.0009223268134519,0.0009261587983928,-0.001382443588227,0.0001406222581863,-9.81746768951416,0,0,29.162736892700195,1,1,760,800,3.679361,0,0.0009261587983928,0.0009261587983928,0.0,0,0.0009261587983928
1778782188.779401,71964536,0,0.001027516555041,0.0010086323600262,0.0009871067013591,7.009296678006649e-05,-0.000519192428328,-9.818275451660156,0,0,29.16484832763672,1,1,1000,1000,3.719345,0,0.0009871067013591,0.0009871067013591,0.0,0,0.0009871067013591
1778782188.779401,71964536,1,0.0011622866149991,0.0010624508140608,0.0009919994045048,-0.0004889711271971,-0.0037212851457297,-9.81640338897705,0,0,29.16484832763672,1,1,760,800,3.719345,0,0.0009919994045048,0.0009919994045048,0.0,0,0.0009919994045048
1778782188.819385,72004520,0,0.0010761646553874,0.0010147554567083,0.0010089094284921,-0.0002223410847363,-0.0004777158028446,-9.816996574401855,0,0,29.16695976257324,1,1,1000,1000,3.759329,0,0.0010089094284921,0.0010089094284921,0.0,0,0.0010089094284921
1778782188.819385,72004520,1,0.0009661127696745,0.0009597592870704,0.0011503847781568,-0.0020401391666382,-0.0008759789634495,-9.81574821472168,0,0,29.16695976257324,1,1,760,800,3.759329,0,0.0011503847781568,0.0011503847781568,0.0,0,0.0011503847781568
1778782188.859369,72044504,0,0.001056840759702,0.0010026306845247,0.0009668667335063,-0.0009067313512787,-0.0003798810357693,-9.818435668945312,0,0,29.16907119750977,1,1,1000,1000,3.799313,0,0.0009668667335063,0.0009668667335063,0.0,0,0.0009668667335063
1778782188.859369,72044504,1,0.0010347553761675,0.0009731731843203,0.0011360875796526,-0.0013807751238346,-0.0028888152446597,-9.815546035766602,0,0,29.16907119750977,1,1,760,800,3.799313,0,0.0011360875796526,0.0011360875796526,0.0,0,0.0011360875796526
1778782188.899353,72084488,0,0.0010389504022896,0.0010063850786536,0.0009805778972804,-5.8180656196782365e-05,-0.0004124859697185,-9.81833267211914,0,0,29.171180725097656,1,1,1000,1000,3.839297,0,0.0009805778972804,0.0009805778972804,0.0,0,0.0009805778972804
1778782188.899353,72084488,1,0.0008711822447367,0.0010283663868904,0.0012337147491052,-0.0005410516750998,-0.0013195583596825,-9.818567276000977,0,0,29.171180725097656,1,1,760,800,3.839297,0,0.0012337147491052,0.0012337147491052,0.0,0,0.0012337147491052
1778782188.939337,72124472,0,0.0009963456541299,0.0009932182729244,0.0010277178371325,-0.0009127446683123,-0.0010512153385207,-9.818178176879885,0,0,29.17329216003418,1,1,1000,1000,3.879281,0,0.0010277178371325,0.0010277178371325,0.0,0,0.0010277178371325
1778782188.939337,72124472,1,0.0012480339501053,0.0009131660917773,0.0011851206654682,-0.0003544241772033,-0.0008110353373922,-9.817779541015623,0,0,29.17329216003418,1,1,760,800,3.879281,0,0.0011851206654682,0.0011851206654682,0.0,0,0.0011851206654682
1778782188.979321,72164456,0,0.0010565733537077,0.0010517181362956,0.0010128567228093,-0.0018420343985781,-0.0001674995583016,-9.818565368652344,0,0,29.17540168762207,1,1,1000,1000,3.919265,0,0.0010128567228093,0.0010128567228093,0.0,0,0.0010128567228093
1778782188.979321,72164456,1,0.0011189458891749,0.0010148793226107,0.0009999184403568,-0.0010280376300215,-0.0032335533760488,-9.81492805480957,0,0,29.17540168762207,1,1,760,800,3.919265,0,0.0009999184403568,0.0009999184403568,0.0,0,0.0009999184403568
1778782189.0193052,72204440,0,0.0010455331066623,0.0010236361995339,0.0010845789220184,-0.0011259402381256,-0.001860779011622,-9.816255569458008,0,0,29.17751121520996,1,1,1000,1000,3.959249,0,0.0010845789220184,0.0010845789220184,0.0,0,0.0010845789220184
1778782189.0193052,72204440,1,0.0007159874076023,0.0009368857135996,0.0010741270380094,-0.0001329744409304,-0.0029375804588198,-9.81820583343506,0,0,29.17751121520996,1,1,760,800,3.959249,0,0.0010741270380094,0.0010741270380094,0.0,0,0.0010741270380094
1778782189.0592892,72244424,0,0.0010807779617607,0.0010019526816904,0.0009131322149187,-0.0003155797894578,-0.001770723843947,-9.816570281982422,0,0,29.17962074279785,1,1,1000,1000,3.999233,0,0.0009131322149187,0.0009131322149187,0.0,0,0.0009131322149187
1778782189.0592892,72244424,1,0.001164288027212,0.0010140070226043,0.000653272611089,-0.0008784743258729,-0.0009140088804997,-9.816737174987791,0,0,29.17962074279785,1,1,760,800,3.999233,0,0.000653272611089,0.000653272611089,0.0,0,0.000653272611089
1778782189.0992732,72284408,0,0.0010254803346469,0.0011196811683475,0.0010133974719792,-0.0008376673795282,-0.0004477657785173,-9.81809902191162,0,0,29.18172836303711,1,1,1000,1000,4.039217,0,0.0010133974719792,0.0010133974719792,0.0,0,0.0010133974719792
1778782189.0992732,72284408,1,0.0010496017057448,0.0011556835379451,0.0011944085126742,-0.0012395191006362,-0.0015237771440297,-9.818058013916016,0,0,29.18172836303711,1,1,760,800,4.039217,0,0.0011944085126742,0.0011944085126742,0.0,0,0.0011944085126742
1778782189.1392572,72324392,0,0.0010729011846706,0.0010432039853185,0.0010827368823811,-0.0026531335897743,-0.0006900517037138,-9.817501068115234,0,0,29.18383979797364,1,1,1000,1000,4.079201,0,0.0010827368823811,0.0010827368823811,0.0,0,0.0010827368823811
1778782189.1392572,72324392,1,0.0010912803700193,0.0010903497459366,0.0010168589651584,0.0016368483193218,0.0007729436620138,-9.819509506225586,0,0,29.18383979797364,1,1,760,800,4.079201,0,0.0010168589651584,0.0010168589651584,0.0,0,0.0010168589651584
1778782189.1792412,72364376,0,0.0009915137197822,0.0010421125916764,0.0009737773216329,-0.0016495094168931,-0.001862151781097,-9.817293167114258,0,0,29.18594741821289,1,1,1000,1000,4.119185,0,0.0009737773216329,0.0009737773216329,0.0,0,0.0009737773216329
1778782189.1792412,72364376,1,0.0013229539617896,0.0011444403789937,0.0008301550988107,-0.0016419549938291,0.0001119113221648,-9.81870460510254,0,0,29.18594741821289,1,1,760,800,4.119185,0,0.0008301550988107,0.0008301550988107,0.0,0,0.0008301550988107
1778782189.2192252,72404360,0,0.0009273147443309,0.0010916870087385,0.0010581410024315,-0.0011978681432083,-0.0002301243221154,-9.81747817993164,0,0,29.18805694580078,1,1,1000,1000,4.159169,0,0.0010581410024315,0.0010581410024315,0.0,0,0.0010581410024315
1778782189.2192252,72404360,1,0.001092727528885,0.0011063772253692,0.0010052893776446,-0.0011183505412191,-0.0006868915515951,-9.817425727844238,0,0,29.18805694580078,1,1,760,800,4.159169,0,0.0010052893776446,0.0010052893776446,0.0,0,0.0010052893776446
1778782189.260042,72445177,0,0.0010296870023012,0.0010417974554002,0.0010524333920329,-0.0009885958861559,-0.0018299084622412,-9.817736625671388,0,0,29.19016456604004,1,1,1000,1000,4.199986,0,0.0010524333920329,0.0010524333920329,0.0,0,0.0010524333920329
1778782189.260042,72445177,1,0.001131952740252,0.001133166020736,0.001009355764836,-3.326204023323953e-06,-0.0018971469253301,-9.818758964538574,0,0,29.19016456604004,1,1,760,800,4.199986,0,0.001009355764836,0.001009355764836,0.0,0,0.001009355764836
1778782189.300026,72485161,0,0.0010124334366992,0.0010604634881019,0.0010059381602331,-0.0010998707730323,-0.0011498685926198,-9.818473815917969,0,0,29.192272186279297,1,1,1000,1000,4.23997,0,0.0010059381602331,0.0010059381602331,0.0,0,0.0010059381602331
1778782189.300026,72485161,1,0.0010100387735292,0.0008902526460587,0.0010054839076474,-0.0038689072243869,-0.0019756634719669,-9.815507888793944,0,0,29.192272186279297,1,1,760,800,4.23997,0,0.0010054839076474,0.0010054839076474,0.0,0,0.0010054839076474
1778782189.34001,72525145,0,0.0009670810541138,0.0009944658959284,0.0010108522837981,0.0002840595261659,-0.0007923410157673,-9.816481590270996,0,0,29.194379806518555,1,1,1000,1000,4.279954,0,0.0010108522837981,0.0010108522837981,0.0,0,0.0010108522837981
1778782189.34001,72525145,1,0.0010193424532189,0.0010067950934171,0.0011417407076805,3.8280453736661e-05,0.0004988596774637,-9.818472862243652,0,0,29.194379806518555,1,1,760,800,4.279954,0,0.0011417407076805,0.0011417407076805,0.0,0,0.0011417407076805
1778782189.379994,72565129,0,0.0010058028856292,0.0009669446735642,0.0010574625339359,-0.0012153818970546,-0.0007903894293121,-9.818330764770508,0,0,29.19648742675781,1,1,1000,1000,4.319938,0,0.0010574625339359,0.0010574625339359,0.0,0,0.0010574625339359
1778782189.379994,72565129,1,0.0009016235126182,0.0009184021037071,0.0008975451346486,0.0019446088699623,-4.104485924472101e-06,-9.818137168884276,0,0,29.19648742675781,1,1,760,800,4.319938,0,0.0008975451346486,0.0008975451346486,0.0,0,0.0008975451346486
1778782189.419978,72605113,0,0.0009423966403119,0.0011284690117463,0.0010858576279133,-0.0006165640079416,-0.0010635324288159,-9.817774772644045,0,0,29.19859313964844,1,1,1000,1000,4.359922,0,0.0010858576279133,0.0010858576279133,0.0,0,0.0010858576279133
1778782189.419978,72605113,1,0.0008219080045819,0.0008736738236621,0.0011248691007494,-0.0012389400508254,-0.0014853801112622,-9.817930221557615,0,0,29.19859313964844,1,1,760,800,4.359922,0,0.0011248691007494,0.0011248691007494,0.0,0,0.0011248691007494
1778782189.459962,72645097,0,0.0010669762268662,0.0010544219985604,0.0009870624635368,-0.0003486472123768,-0.0003140674380119,-9.817864418029783,0,0,29.20070075988769,1,1,1000,1000,4.399906,0,0.0009870624635368,0.0009870624635368,0.0,0,0.0009870624635368
1778782189.459962,72645097,1,0.0011368755949661,0.0010277749970555,0.0010451702401041,-0.0024775273632258,-0.0030413644853979,-9.817602157592772,0,0,29.20070075988769,1,1,760,800,4.399906,0,0.0010451702401041,0.0010451702401041,0.0,0,0.0010451702401041
1778782189.499946,72685081,0,0.0010166768915951,0.0010334756225347,0.0011499912943691,-0.0008694324060343,-0.0013702869182452,-9.817131996154783,0,0,29.20280647277832,1,1,1000,1000,4.43989,0,0.0011499912943691,0.0011499912943691,0.0,0,0.0011499912943691
1778782189.499946,72685081,1,0.0012072360841557,0.0009987236699089,0.0008094455115497,-0.0028867973014712,0.0002855049096979,-9.819931983947754,0,0,29.20280647277832,1,1,760,800,4.43989,0,0.0008094455115497,0.0008094455115497,0.0,0,0.0008094455115497
1778782189.53993,72725065,0,0.0010711085051298,0.0010152491740882,0.0009895177790895,-0.0012973850825801,-0.0004260693967808,-9.818044662475586,0,0,29.204965591430664,1,1,1000,1000,4.479874,0,0.0009895177790895,0.0009895177790895,0.0,0,0.0009895177790895
1778782189.53993,72725065,1,0.001057730638422,0.0009322900441475,0.001006469130516,-0.0024979310110211,-0.002972969552502,-9.820658683776855,0,0,29.204965591430664,1,1,760,800,4.479874,0,0.001006469130516,0.001006469130516,0.0,0,0.001006469130516
1778782189.579914,72765049,0,0.0010888485703617,0.001023982767947,0.0010402456391602,-0.0006046692724339,-0.0012349545722827,-9.816360473632812,0,0,29.20707321166992,1,1,1000,1000,4.519858,0,0.0010402456391602,0.0010402456391602,0.0,0,0.0010402456391602
1778782189.579914,72765049,1,0.0008029649034142,0.001028332626447,0.0008702845079824,0.0020777753088623,0.0003136036393698,-9.817789077758787,0,0,29.20707321166992,1,1,760,800,4.519858,0,0.0008702845079824,0.0008702845079824,0.0,0,0.0008702845079824
1778782189.619898,72805033,0,0.0010617292718961,0.0010833065025508,0.0010279953712597,-0.0019888086244463,-0.0009619705379009,-9.816753387451172,0,0,29.20917701721192,1,1,1000,1000,4.559842,0,0.0010279953712597,0.0010279953712597,0.0,0,0.0010279953712597
1778782189.619898,72805033,1,0.0010978899663314,0.0010303920134902,0.0010910155251622,-0.0014844667166471,0.0003524328640196,-9.816146850585938,0,0,29.20917701721192,1,1,760,800,4.559842,0,0.0010910155251622,0.0010910155251622,0.0,0,0.0010910155251622
1778782189.659882,72845017,0,0.0010081973159685,0.0009669357677921,0.0010394918499514,0.0001079516659956,-0.0012150714173913,-9.817248344421388,0,0,29.21128273010254,1,1,1000,1000,4.599826,0,0.0010394918499514,0.0010394918499514,0.0,0,0.0010394918499514
1778782189.659882,72845017,1,0.0008708937093615,0.0009932703105732,0.0009705083211883,-7.179146632552147e-05,-0.0015540623571723,-9.818264961242676,0,0,29.21128273010254,1,1,760,800,4.599826,0,0.0009705083211883,0.0009705083211883,0.0,0,0.0009705083211883
1778782189.699866,72885001,0,0.0009724328410811,0.0010101306252181,0.0010266252793371,-0.0019008992239832,-0.0013005952350795,-9.816877365112305,0,0,29.213388442993164,1,1,1000,1000,4.63981,0,0.0010266252793371,0.0010266252793371,0.0,0,0.0010266252793371
1778782189.699866,72885001,1,0.0009143410134129,0.0011419889051467,0.000990149914287,-0.0034370869398117,-0.0018174819415435,-9.819799423217772,0,0,29.213388442993164,1,1,760,800,4.63981,0,0.000990149914287,0.000990149914287,0.0,0,0.000990149914287
1778782189.73985,72924985,0,0.0011374001624062,0.0010792382527142,0.0010710211936384,-0.0008936361409723,-0.001460981904529,-9.81718635559082,0,0,29.21543884277344,1,1,1000,1000,4.679794,0,0.0010710211936384,0.0010710211936384,0.0,0,0.0010710211936384
1778782189.73985,72924985,1,0.0012943488545715,0.001035104971379,0.0010409352835267,-1.4389192983799148e-05,-0.0021819076500833,-9.81670379638672,0,0,29.21543884277344,1,1,760,800,4.679794,0,0.0010409352835267,0.0010409352835267,0.0,0,0.0010409352835267
1778782189.779834,72964969,0,0.0010654901852831,0.0011086307931691,0.0010118836071342,-0.0004998853546567,-0.0010245935991406,-9.817798614501951,0,0,29.217544555664062,1,1,1000,1000,4.719778,0,0.0010118836071342,0.0010118836071342,0.0,0,0.0010118836071342
1778782189.779834,72964969,1,0.0011282101040706,0.0008586514741182,0.0013004256179556,-0.0040076076984405,-0.000809246848803,-9.818275451660156,0,0,29.217544555664062,1,1,760,800,4.719778,0,0.0013004256179556,0.0013004256179556,0.0,0,0.0013004256179556
1778782189.819818,73004953,0,0.0009933079127222,0.0010970962466672,0.0010223594726994,-0.0004109910805709,-9.570238762535156e-05,-9.816412925720217,0,0,29.21964836120605,1,1,1000,1000,4.759762,0,0.0010223594726994,0.0010223594726994,0.0,0,0.0010223594726994
1778782189.819818,73004953,1,0.0011239208979532,0.0009149719262495,0.0011410324368625,0.0003793230862356,-0.0008685678476467,-9.818065643310549,0,0,29.21964836120605,1,1,760,800,4.759762,0,0.0011410324368625,0.0011410324368625,0.0,0,0.0011410324368625
1778782189.859802,73044937,0,0.0010035950690507,0.0010185706196352,0.001028784783557,-0.0007366765057668,-0.0016949215205386,-9.818197250366213,0,0,29.221752166748047,1,1,1000,1000,4.799746,0,0.001028784783557,0.001028784783557,0.0,0,0.001028784783557
1778782189.859802,73044937,1,0.001065241638571,0.0011417291825637,0.0008574296953156,-0.0036425576545298,0.0001749801449477,-9.818548202514648,0,0,29.221752166748047,1,1,760,800,4.799746,0,0.0008574296953156,0.0008574296953156,0.0,0,0.0008574296953156
1778782189.899786,73084921,0,0.0010469395201653,0.0010388679802417,0.0010270472848787,-0.0004295688995625,-2.818578650476411e-06,-9.817227363586426,0,0,29.22385597229004,1,1,1000,1000,4.83973,0,0.0010270472848787,0.0010270472848787,0.0,0,0.0010270472848787
1778782189.899786,73084921,1,0.0009296141797676,0.000916720542591,0.0008442451362498,-0.002157256938517,0.0001829271786846,-9.815815925598145,0,0,29.22385597229004,1,1,760,800,4.83973,0,0.0008442451362498,0.0008442451362498,0.0,0,0.0008442451362498
1778782189.9397702,73124905,0,0.0010939834173768,0.0010210338514298,0.0010700304992496,-0.0007306101033464,-4.853758218814619e-05,-9.816551208496094,0,0,29.22595977783203,1,1,1000,1000,4.879714,0,0.0010700304992496,0.0010700304992496,0.0,0,0.0010700304992496
1778782189.9397702,73124905,1,0.001118574058637,0.0010383361950516,0.0009625605307519,-0.0023134511429816,-0.0016353726387023,-9.818721771240234,0,0,29.22595977783203,1,1,760,800,4.879714,0,0.0009625605307519,0.0009625605307519,0.0,0,0.0009625605307519
1778782189.9797542,73164889,0,0.0010037382598966,0.0011135380482301,0.001048688776791,-0.0008870080346241,-0.0004552080645225,-9.817458152770996,0,0,29.22806167602539,1,1,1000,1000,4.919698,0,0.001048688776791,0.001048688776791,0.0,0,0.001048688776791
1778782189.9797542,73164889,1,0.0010559415677562,0.0008943018037825,0.0009227883419953,-0.0010522899683564,-0.0028949794359505,-9.81865406036377,0,0,29.22806167602539,1,1,760,800,4.919698,0,0.0009227883419953,0.0009227883419953,0.0,0,0.0009227883419953
1778782190.0197382,73204873,0,0.0010932923760265,0.0010650201002135,0.0010295480024069,-0.0014128097100183,-0.0009724971605464,-9.818256378173828,0,0,29.230165481567383,1,1,1000,1000,4.959682,0,0.0010295480024069,0.0010295480024069,0.0,0,0.0010295480024069
1778782190.0197382,73204873,1,0.0011754244333133,0.000971331493929,0.0010534070897847,-0.0014140565181151,-0.0022157011553645,-9.818121910095217,0,0,29.230165481567383,1,1,760,800,4.959682,0,0.0010534070897847,0.0010534070897847,0.0,0,0.0010534070897847
1778782190.059722,73244857,0,0.0010462829377502,0.0010391913820058,0.0010927482508122,-0.0016776794800534,-0.0007804970955476,-9.817828178405762,0,0,29.232267379760746,1,1,1000,1000,4.999666,0,0.0010927482508122,0.0010927482508122,0.0,0,0.0010927482508122
1778782190.059722,73244857,1,0.0007231290801428,0.0012760864337906,0.0012465004110708,-0.0026425328105688,0.0003000572905875,-9.817098617553713,0,0,29.232267379760746,1,1,760,800,4.999666,0,0.0012465004110708,0.0012465004110708,0.0,0,0.0012465004110708
1778782190.099706,73284841,0,0.0010119456565007,0.0009818506659939,0.0009753603953868,-1.498800702393055e-05,-0.0014134219381958,-9.817731857299805,0,0,29.23437118530273,1,1,1000,1000,5.03965,0,0.0009753603953868,0.0009753603953868,0.0,0,0.0009753603953868
1778782190.099706,73284841,1,0.0010839705355465,0.0009190740529447,0.0011925119906663,-0.0026794490404427,-0.0008865989511832,-9.818262100219728,0,0,29.23437118530273,1,1,760,800,5.03965,0,0.0011925119906663,0.0011925119906663,0.0,0,0.0011925119906663
1778782190.13969,73324825,0,0.0010877805761992,0.0010318149579688,0.0010475439485162,-0.0011923409765586,-0.0005872977199032,-9.81888484954834,0,0,29.23647117614746,1,1,1000,1000,5.079634,0,0.0010475439485162,0.0010475439485162,0.0,0,0.0010475439485162
1778782190.13969,73324825,1,0.0008667596848681,0.0009828340262174,0.0012327600270509,-0.0024626636877655,-0.0009996893350034,-9.817716598510742,0,0,29.23647117614746,1,1,760,800,5.079634,0,0.0012327600270509,0.0012327600270509,0.0,0,0.0012327600270509
1778782190.179674,73364809,0,0.0009590166737325,0.0010068027768284,0.0009783589048311,-0.0010018917964771,-0.0002747022081166,-9.818509101867676,0,0,29.23857307434082,1,1,1000,1000,5.119618,0,0.0009783589048311,0.0009783589048311,0.0,0,0.0009783589048311
1778782190.179674,73364809,1,0.000910413742531,0.000995659851469,0.0011773062869906,0.0012189361732453,8.824032556731254e-05,-9.81808853149414,0,0,29.23857307434082,1,1,760,800,5.119618,0,0.0011773062869906,0.0011773062869906,0.0,0,0.0011773062869906
1778782190.219658,73404793,0,0.0009765389841049,0.0010608471930027,0.0010683310683816,-0.0009376637171953,-0.0007681748247705,-9.817230224609377,0,0,29.24067497253418,1,1,1000,1000,5.159602,0,0.0010683310683816,0.0010683310683816,0.0,0,0.0010683310683816
1778782190.219658,73404793,1,0.0007938452181406,0.0011735201114788,0.0010799461742863,0.0022092838771641,-0.0028654374182224,-9.816583633422852,0,0,29.24067497253418,1,1,760,800,5.159602,0,0.0010799461742863,0.0010799461742863,0.0,0,0.0010799461742863
1778782190.259642,73444777,0,0.0010179540840908,0.0009936199057847,0.0009948620572686,-0.0022542139049619,-0.0008705090731382,-9.818422317504885,0,0,29.24277687072754,1,1,1000,1000,5.199586,0,0.0009948620572686,0.0009948620572686,0.0,0,0.0009948620572686
1778782190.259642,73444777,1,0.0007564108818769,0.000856966827996,0.0011175302788615,0.0003077019937336,0.0014335041632875,-9.818297386169434,0,0,29.24277687072754,1,1,760,800,5.199586,0,0.0011175302788615,0.0011175302788615,0.0,0,0.0011175302788615
1778782190.299626,73484761,0,0.0010345706250518,0.0010244481964036,0.0010676943929865,0.0002427127328701,-0.0006828827317804,-9.81756591796875,0,0,29.244876861572266,1,1,1000,1000,5.23957,0,0.0010676943929865,0.0010676943929865,0.0,0,0.0010676943929865
1778782190.299626,73484761,1,0.0009243441745638,0.0011379298521205,0.0010548261925578,-0.0001923604577314,-0.0004573839833028,-9.816593170166016,0,0,29.244876861572266,1,1,760,800,5.23957,0,0.0010548261925578,0.0010548261925578,0.0,0,0.0010548261925578
1778782190.33961,73524745,0,0.0009905354818329,0.0010122795356437,0.001011393382214,-0.0006522390758618,-0.0015069121727719,-9.817034721374512,0,0,29.246978759765625,1,1,1000,1000,5.279554,0,0.001011393382214,0.001011393382214,0.0,0,0.001011393382214
1778782190.33961,73524745,1,0.0010042716749012,0.0010045815724879,0.0009711213642731,-0.0047154361382126,-0.0002187951322412,-9.816049575805664,0,0,29.246978759765625,1,1,760,800,5.279554,0,0.0009711213642731,0.0009711213642731,0.0,0,0.0009711213642731
1778782190.379594,73564729,0,0.001076181884855,0.0010246555320918,0.0010518921772018,0.0001159922030637,-0.0015076659619808,-9.816786766052246,0,0,29.24907684326172,1,1,1000,1000,5.319538,0,0.0010518921772018,0.0010518921772018,0.0,0,0.0010518921772018
1778782190.379594,73564729,1,0.0008633002871647,0.0010049407137557,0.0010604751296341,-0.0004119764489587,-0.002390356035903,-9.81557273864746,0,0,29.24907684326172,1,1,760,800,5.319538,0,0.0010604751296341,0.0010604751296341,0.0,0,0.0010604751296341
1778782190.419578,73604713,0,0.0010026356903836,0.0010376296704635,0.0010823549237102,-0.0020350078120827,-0.0007987015414983,-9.817282676696776,0,0,29.251176834106445,1,1,1000,1000,5.359522,0,0.0010823549237102,0.0010823549237102,0.0,0,0.0010823549237102
1778782190.419578,73604713,1,0.0010617807274684,0.0010436056181788,0.0010504423407837,-0.0026730042882263,-0.0015113658737391,-9.819361686706545,0,0,29.251176834106445,1,1,760,800,5.359522,0,0.0010504423407837,0.0010504423407837,0.0,0,0.0010504423407837
1778782190.459562,73644697,0,0.0010466341627761,0.0010484777158126,0.0010229026665911,-0.0016878622118383,-0.000980578130111,-9.816886901855469,0,0,29.25327682495117,1,1,1000,1000,5.399506,0,0.0010229026665911,0.0010229026665911,0.0,0,0.0010229026665911
1778782190.459562,73644697,1,0.0012087647337466,0.0011094526853412,0.0010889500845223,0.000193243875401,0.0007053462322801,-9.820446014404297,0,0,29.25327682495117,1,1,760,800,5.399506,0,0.0010889500845223,0.0010889500845223,0.0,0,0.0010889500845223
1778782190.499546,73684681,0,0.0010261476272717,0.0010480444179847,0.0009855453390628,-0.0004369038506411,-0.0001804320490919,-9.818185806274414,0,0,29.2553768157959,1,1,1000,1000,5.43949,0,0.0009855453390628,0.0009855453390628,0.0,0,0.0009855453390628
1778782190.499546,73684681,1,0.0012050261721014,0.0010634845821186,0.0009790188632905,-0.0028297794051468,0.0026684284675866,-9.8208646774292,0,0,29.2553768157959,1,1,760,800,5.43949,0,0.0009790188632905,0.0009790188632905,0.0,0,0.0009790188632905
1778782190.53953,73724665,0,0.0010253747459501,0.0009934024419635,0.0010710977949202,-0.0015983002958819,-1.864822661445941e-05,-9.818017959594728,0,0,29.257476806640625,1,1,1000,1000,5.479474,0,0.0010710977949202,0.0010710977949202,0.0,0,0.0010710977949202
1778782190.53953,73724665,1,0.0010612566256895,0.001134977908805,0.0010347787756472,-0.0014877517241984,3.385645686648786e-05,-9.817445755004885,0,0,29.257476806640625,1,1,760,800,5.479474,0,0.0010347787756472,0.0010347787756472,0.0,0,0.0010347787756472
1778782190.579514,73764649,0,0.0010742060840129,0.0010469213593751,0.0010474113514646,-0.0004927411209791,-0.0019760325085371,-9.81820297241211,0,0,29.25957489013672,1,1,1000,1000,5.519458,0,0.0010474113514646,0.0010474113514646,0.0,0,0.0010474113514646
1778782190.579514,73764649,1,0.0010289469501003,0.0010212745983153,0.0010809949599206,-0.0029690945520997,0.0013248773757368,-9.81922721862793,0,0,29.25957489013672,1,1,760,800,5.519458,0,0.0010809949599206,0.0010809949599206,0.0,0,0.0010809949599206
1778782190.619498,73804633,0,0.0010479653719812,0.0010173781774938,0.0010583149269223,-0.0009069447405636,-0.0009561724727973,-9.817499160766602,0,0,29.26167297363281,1,1,1000,1000,5.559442,0,0.0010583149269223,0.0010583149269223,0.0,0,0.0010583149269223
1778782190.619498,73804633,1,0.0007466752431355,0.0010036553721874,0.0010734897805377,-0.0024203201755881,-0.0014297605957835,-9.81560230255127,0,0,29.26167297363281,1,1,760,800,5.559442,0,0.0010734897805377,0.0010734897805377,0.0,0,0.0010734897805377
1778782190.659482,73844617,0,0.0010373833356425,0.0010757574345916,0.0010458282195031,-0.0004928550915792,-0.0011222856119275,-9.816731452941896,0,0,29.263771057128903,1,1,1000,1000,5.599426,0,0.0010458282195031,0.0010458282195031,0.0,0,0.0010458282195031
1778782190.659482,73844617,1,0.0010673920623958,0.0009206855320371,0.001019594608806,-0.0019627783913165,0.0003573403519112,-9.818583488464355,0,0,29.263771057128903,1,1,760,800,5.599426,0,0.001019594608806,0.001019594608806,0.0,0,0.001019594608806
1778782190.6994662,73884601,0,0.001025112112984,0.0010135036427527,0.0010424288921058,-0.0011108397739008,-0.0011126409517601,-9.818685531616213,0,0,29.265869140625,1,1,1000,1000,5.63941,0,0.0010424288921058,0.0010424288921058,0.0,0,0.0010424288921058
1778782190.6994662,73884601,1,0.0010260705603286,0.0012856443645432,0.0012207184918224,-0.0013886978849768,6.856743129901588e-05,-9.817813873291016,0,0,29.265869140625,1,1,760,800,5.63941,0,0.0012207184918224,0.0012207184918224,0.0,0,0.0012207184918224
1778782190.7394502,73924585,0,0.0010685386369004,0.0010143830440938,0.0010572299361228,-0.0015367490705102,-0.0005935823428444,-9.817363739013672,0,0,29.267967224121094,1,1,1000,1000,5.679394,0,0.0010572299361228,0.0010572299361228,0.0,0,0.0010572299361228
1778782190.7394502,73924585,1,0.0010880635818466,0.0010117558995261,0.0009174188016913,0.0004907369147986,-0.0009605484083294,-9.817615509033203,0,0,29.267967224121094,1,1,760,800,5.679394,0,0.0009174188016913,0.0009174188016913,0.0,0,0.0009174188016913
1778782190.7794342,73964569,0,0.0010528031270951,0.0011004938278347,0.0010754880495369,-0.0014734038850292,-0.0006447220803238,-9.818148612976074,0,0,29.270065307617188,1,1,1000,1000,5.719378,0,0.0010754880495369,0.0010754880495369,0.0,0,0.0010754880495369
1778782190.7794342,73964569,1,0.000978862051852,0.0010595285566523,0.0010532903252169,-0.0018338926602154,0.000914643111173,-9.8157377243042,0,0,29.270065307617188,1,1,760,800,5.719378,0,0.0010532903252169,0.0010532903252169,0.0,0,0.0010532903252169
1778782190.819418,74004553,0,0.0010200396645814,0.0010782165918499,0.0010371026583015,-0.0012442027218639,0.0001602639968041,-9.818207740783691,0,0,29.27216148376465,1,1,1000,1000,5.759362,0,0.0010371026583015,0.0010371026583015,0.0,0,0.0010371026583015
1778782190.819418,74004553,1,0.0010743894381448,0.001127079478465,0.0010630381293594,0.0004497325862757,-0.0016971674049273,-9.816694259643556,0,0,29.27216148376465,1,1,760,800,5.759362,0,0.0010630381293594,0.0010630381293594,0.0,0,0.0010630381293594
1778782190.859402,74044537,0,0.001023426419124,0.0009990243706852,0.0010368016082793,-0.0012032850645482,-0.0009398063411936,-9.816862106323242,0,0,29.27425765991211,1,1,1000,1000,5.799346,0,0.0010368016082793,0.0010368016082793,0.0,0,0.0010368016082793
1778782190.859402,74044537,1,0.0010202832054346,0.0011703320778906,0.0011790476273745,-0.0019587283022701,-0.0025092903524637,-9.81725025177002,0,0,29.27425765991211,1,1,760,800,5.799346,0,0.0011790476273745,0.0011790476273745,0.0,0,0.0011790476273745
1778782190.899386,74084521,0,0.0010852572740986,0.0010853188578039,0.001023065065965,-0.0011790212010964,-0.0001483781525166,-9.817140579223633,0,0,29.276355743408203,1,1,1000,1000,5.83933,0,0.001023065065965,0.001023065065965,0.0,0,0.001023065065965
1778782190.899386,74084521,1,0.0010586717398837,0.0008618923602625,0.001122779562138,-0.0010643686400726,0.0020580722484737,-9.818936347961426,0,0,29.276355743408203,1,1,760,800,5.83933,0,0.001122779562138,0.001122779562138,0.0,0,0.001122779562138
1778782190.93937,74124505,0,0.0010082861408591,0.001021553762257,0.0010883859358727,-0.0020152889192104,-0.0006656856276094,-9.817535400390623,0,0,29.278451919555664,1,1,1000,1000,5.879314,0,0.0010883859358727,0.0010883859358727,0.0,0,0.0010883859358727
1778782190.93937,74124505,1,0.0009485818445682,0.0010042216163128,0.001186853274703,0.001142717548646,0.0004824559437111,-9.820655822753906,0,0,29.278451919555664,1,1,760,800,5.879314,0,0.001186853274703,0.001186853274703,0.0,0,0.001186853274703
1778782190.979354,74164489,0,0.0010702654253691,0.0010264853481203,0.0010396973229944,-0.0006416231626644,-0.0008677124278619,-9.817513465881348,0,0,29.280548095703125,1,1,1000,1000,5.919298,0,0.0010396973229944,0.0010396973229944,0.0,0,0.0010396973229944
1778782190.979354,74164489,1,0.0009751177276484,0.0012273082975298,0.0008318781619891,-0.0007320185541175,-0.0009929753141477,-9.818476676940918,0,0,29.280548095703125,1,1,760,800,5.919298,0,0.0008318781619891,0.0008318781619891,0.0,0,0.0008318781619891
1778782191.019338,74204473,0,0.0010321524459868,0.0010477940086275,0.000990770291537,-0.0006995523581281,-0.0008865018608048,-9.818374633789062,0,0,29.282644271850582,1,1,1000,1000,5.959282,0,0.000990770291537,0.000990770291537,0.0,0,0.000990770291537
1778782191.019338,74204473,1,0.0009749575983732,0.0012085298076272,0.0010043064830824,0.0005430879537016,-0.0014605334727093,-9.81728172302246,0,0,29.282644271850582,1,1,760,800,5.959282,0,0.0010043064830824,0.0010043064830824,0.0,0,0.0010043064830824
1778782191.059322,74244457,0,0.001026569167152,0.0010309962090104,0.0011015525087714,-0.0003957505105063,-0.0015559989260509,-10.249589920043944,0,0,29.284740447998047,1,1,1000,1000,5.999266,0,0.0011015525087714,0.0011015525087714,0.0,0,0.0011015525087714
1778782191.059322,74244457,1,0.0010251714847981,0.0010854466818273,0.0010114426258951,-0.0015110753010958,0.002309801755473,-10.243886947631836,0,0,29.284740447998047,1,1,760,800,5.999266,0,0.0010114426258951,0.0010114426258951,0.0,0,0.0010114426258951
1778782191.099306,74284441,0,0.0010521644726395,0.0010442860657349,0.0009689846774563,-0.0010404862696304,-0.0008695028955116,-10.491609573364258,0,0,29.286834716796875,1,1,1000,1000,6.03925,0,0.0009689846774563,0.0009689846774563,0.0,0,0.0009689846774563
1778782191.099306,74284441,1,0.0010598513763397,0.0010267468169331,0.0011778459884226,-0.0022288332693278,0.0004615561920218,-10.490762710571287,0,0,29.286834716796875,1,1,760,800,6.03925,0,0.0011778459884226,0.0011778459884226,0.0,0,0.0011778459884226
1778782191.13929,74324425,0,0.0010433011921122,0.0010955133475363,0.0010129145812243,0.00011839196668,-0.0013662482379004,-10.358654975891112,0,0,29.288928985595703,1,1,1000,1000,6.079234,0,0.0010129145812243,0.0010129145812243,0.0,0,0.0010129145812243
1778782191.13929,74324425,1,0.0009840989951044,0.0011196085251867,0.0010470885317772,-0.0026233294047415,0.0018608310492709,-10.358325958251951,0,0,29.288928985595703,1,1,760,800,6.079234,0,0.0010470885317772,0.0010470885317772,0.0,0,0.0010470885317772
1778782191.179274,74364409,0,0.0010195623617619,0.0010710097849369,0.00105383945629,-0.0006478417781181,-0.0009214446763508,-10.37679672241211,0,0,29.29102325439453,1,1,1000,1000,6.119218,0,0.00105383945629,0.00105383945629,0.0,0,0.00105383945629
1778782191.179274,74364409,1,0.0011291891569271,0.0008848006254993,0.0011095814406871,-0.0004067256231792,-0.0036289067938923,-10.37640380859375,0,0,29.29102325439453,1,1,760,800,6.119218,0,0.0011095814406871,0.0011095814406871,0.0,0,0.0011095814406871
1778782191.219258,74404393,0,0.0010176033247262,0.0010717443656176,0.0010545754339545,-3.116629522992298e-05,-0.0010945771355181,-10.401458740234377,0,0,29.29311752319336,1,1,1000,1000,6.159202,0,0.0010545754339545,0.0010545754339545,0.0,0,0.0010545754339545
1778782191.219258,74404393,1,0.001079345587641,0.001154257566668,0.0009817697573453,-0.001655819825828,-0.0009872751543298,-10.399078369140623,0,0,29.29311752319336,1,1,760,800,6.159202,0,0.0009817697573453,0.0009817697573453,0.0,0,0.0009817697573453
1778782191.259242,74444377,0,0.0010490341810509,0.0010877527529373,0.0010170675814151,-0.0009281475213356,-0.0008337018662132,-10.379581451416016,0,0,29.29521369934082,1,1,1000,1000,6.199186,0,0.0010170675814151,0.0010170675814151,0.0,0,0.0010170675814151
1778782191.259242,74444377,1,0.0010466636158525,0.0008520249975845,0.001065865624696,-0.0019171428866684,-0.001643629046157,-10.37883186340332,0,0,29.29521369934082,1,1,760,800,6.199186,0,0.001065865624696,0.001065865624696,0.0,0,0.001065865624696
1778782191.299226,74484361,0,0.0010890010744333,0.0010533033637329,0.0010503500234335,-0.0009154087747447,-0.001050183083862,-10.356796264648438,0,0,29.297306060791016,1,1,1000,1000,6.23917,0,0.0010503500234335,0.0010503500234335,0.0,0,0.0010503500234335
1778782191.299226,74484361,1,0.0009535887511447,0.001218152581714,0.0010504655074328,-0.0014027633005753,0.000135766560561,-10.354764938354492,0,0,29.297306060791016,1,1,760,800,6.23917,0,0.0010504655074328,0.0010504655074328,0.0,0,0.0010504655074328
1778782191.340043,74525178,0,0.0010528370039537,0.001018101000227,0.001059606205672,-0.0015054775867611,-0.0008590196375735,-10.346529960632324,0,0,29.299400329589844,1,1,1000,1000,6.279987,0,0.001059606205672,0.001059606205672,0.0,0,0.001059606205672
1778782191.340043,74525178,1,0.0010375757701694,0.0010552299208939,0.0008330945856869,-0.0015630373964086,-0.0009112480329349,-10.348504066467283,0,0,29.299400329589844,1,1,760,800,6.279987,0,0.0008330945856869,0.0008330945856869,0.0,0,0.0008330945856869
1778782191.380027,74565162,0,0.0010399951133877,0.0010125729022547,0.0010802242904901,-0.0013829394010826,-0.0005403790273703,-10.343846321105955,0,0,29.30149269104004,1,1,1000,1000,6.319971,0,0.0010802242904901,0.0010802242904901,0.0,0,0.0010802242904901
1778782191.380027,74565162,1,0.0010076144244521,0.0010421839542686,0.0012112646363675,-0.0032740582246333,0.000321533269016,-10.34544563293457,0,0,29.30149269104004,1,1,760,800,6.319971,0,0.0012112646363675,0.0012112646363675,0.0,0,0.0012112646363675
1778782191.420011,74605146,0,0.0010700454004108,0.0010969184804707,0.0010484755039215,-0.001193463569507,-0.0011662959586828,-10.351024627685549,0,0,29.303586959838867,1,1,1000,1000,6.359955,0,0.0010484755039215,0.0010484755039215,0.0,0,0.0010484755039215
1778782191.420011,74605146,1,0.0010104549583047,0.0009091976680792,0.0009492550743743,-0.0028274720534682,-0.0017238573636859,-10.352874755859377,0,0,29.303586959838867,1,1,760,800,6.359955,0,0.0009492550743743,0.0009492550743743,0.0,0,0.0009492550743743
1778782191.459995,74645130,0,0.0010376404970884,0.0010148352012038,0.0010760164586827,-0.0017185066826641,-0.0005362433148548,-10.363004684448242,0,0,29.305679321289062,1,1,1000,1000,6.399939,0,0.0010760164586827,0.0010760164586827,0.0,0,0.0010760164586827
1778782191.459995,74645130,1,0.001027260092087,0.0011745323427021,0.0012468463974073,-0.0006115570431575,1.4763156286790036e-05,-10.363983154296877,0,0,29.305679321289062,1,1,760,800,6.399939,0,0.0012468463974073,0.0012468463974073,0.0,0,0.0012468463974073
1778782191.499979,74685114,0,0.0010718798730522,0.0010424689389765,0.0010256295790895,-0.0010877398308366,-0.0001413128629792,-10.376214981079102,0,0,29.30777168273925,1,1,1000,1000,6.439923,0,0.0010256295790895,0.0010256295790895,0.0,0,0.0010256295790895
1778782191.499979,74685114,1,0.001105862786062,0.0009634521557018,0.001212075469084,-0.0002448451705276,-0.0021766405552625,-10.376315116882324,0,0,29.30777168273925,1,1,760,800,6.439923,0,0.001212075469084,0.001212075469084,0.0,0,0.001212075469084
1778782191.539963,74725098,0,0.0010480734053999,0.0009948669467121,0.0010984855471178,-0.0012412136420607,-0.0001777740690158,-10.393280029296877,0,0,29.309864044189453,1,1,1000,1000,6.479907,0,0.0010984855471178,0.0010984855471178,0.0,0,0.0010984855471178
1778782191.539963,74725098,1,0.0010181271936744,0.0011026433203369,0.0009729990269988,-0.0002087259927066,-0.0018385162111371,-10.392101287841797,0,0,29.309864044189453,1,1,760,800,6.479907,0,0.0009729990269988,0.0009729990269988,0.0,0,0.0009729990269988
1778782191.5799468,74765082,0,0.0010900081833824,0.0010445021325722,0.0010595542844384,-0.0010601032990962,-0.0009042050223797,-10.408849716186523,0,0,29.31195640563965,1,1,1000,1000,6.519891,0,0.0010595542844384,0.0010595542844384,0.0,0,0.0010595542844384
1778782191.5799468,74765082,1,0.0011175468098372,0.0010696975514292,0.0012097135186195,-0.0027902380097657,-0.0026772464625537,-10.41115379333496,0,0,29.31195640563965,1,1,760,800,6.519891,0,0.0012097135186195,0.0012097135186195,0.0,0,0.0012097135186195
1778782191.6199312,74805066,0,0.0010783486068248,0.0010254610097035,0.0009902373421937,-0.0009807075839489,-0.001138366991654,-10.4259033203125,0,0,29.314098358154297,1,1,1000,1000,6.559875,0,0.0009902373421937,0.0009902373421937,0.0,0,0.0009902373421937
1778782191.6199312,74805066,1,0.0010983948595821,0.0011343623045831,0.0011751524871215,0.0016569710569456,-0.0011156577384099,-10.427375793457031,0,0,29.314098358154297,1,1,760,800,6.559875,0,0.0011751524871215,0.0011751524871215,0.0,0,0.0011751524871215
1778782191.6599152,74845050,0,0.0010240018600597,0.0009844639571383,0.001070735626854,-0.0013267749454826,-0.0003128225216642,-10.437859535217283,0,0,29.31619071960449,1,1,1000,1000,6.599859,0,0.001070735626854,0.001070735626854,0.0,0,0.001070735626854
1778782191.6599152,74845050,1,0.0009551497059874,0.0010481294011697,0.0011377455666661,0.0017298753373324,0.00107697409112,-10.439146041870115,0,0,29.31619071960449,1,1,760,800,6.599859,0,0.0011377455666661,0.0011377455666661,0.0,0,0.0011377455666661
1778782191.6998992,74885034,0,-0.0142380762845277,-0.0124168368056416,0.0010855383006855,-0.0009068349609151,-0.002412928501144,-11.5759916305542,0,0,29.31828117370605,1,1,1000,1000,6.639843,0,0.0010855383006855,0.0010855383006855,0.0,0,0.0010855383006855
1778782191.6998992,74885034,1,-0.0150424251332879,-0.0129876360297203,0.0011115407105535,-0.0011446317657828,-0.0015645627863705,-11.589977264404297,0,0,29.31828117370605,1,1,760,800,6.639843,0,0.0011115407105535,0.0011115407105535,0.0,0,0.0011115407105535
1778782191.7398832,74925018,0,-0.0228822641074657,-0.0222923532128334,0.0014030614402145,-0.0024396064691245,0.0008048834279179,-14.792099952697754,0,0,29.32037353515625,1,1,1000,1000,6.679827,0,0.0014030614402145,0.0014030614402145,0.0,0,0.0014030614402145
1778782191.7398832,74925018,1,-0.0229937620460987,-0.0225611999630928,0.0016029675025492,-0.0011856128694489,-0.0005846198182553,-14.79544734954834,0,0,29.32037353515625,1,1,760,800,6.679827,0,0.0016029675025492,0.0016029675025492,0.0,0,0.0016029675025492
1778782191.7798672,74965002,0,-0.0265045575797557,-0.0262078773230314,0.0016694830264896,-0.0086122071370482,0.0078663658350706,-15.026516914367676,0,0,29.32246398925781,1,1,1000,1000,6.719811,0,0.0016694830264896,0.0016694830264896,0.0,0,0.0016694830264896
1778782191.7798672,74965002,1,-0.0267676319926977,-0.0263049043715,0.0018179652979597,-0.01055274810642,0.0067624747753143,-15.026311874389648,0,0,29.32246398925781,1,1,760,800,6.719811,0,0.0018179652979597,0.0018179652979597,0.0,0,0.0018179652979597
1778782191.8198512,75004986,0,-0.0239767730236053,-0.0249115005135536,0.0018937379354611,-0.0150315463542938,0.0137889282777905,-14.128008842468262,0,0,29.324501037597656,1,1,1000,1000,6.759795,0,0.0018937379354611,0.0018937379354611,0.0,0,0.0018937379354611
1778782191.8198512,75004986,1,-0.0239177010953426,-0.0249048769474029,0.0019791782833635,-0.0159939043223857,0.0144750541076064,-14.123783111572266,0,0,29.324501037597656,1,1,760,800,6.759795,0,0.0019791782833635,0.0019791782833635,0.0,0,0.0019791782833635
1778782191.8598351,75044970,0,-0.0226359218358993,-0.0214520823210477,0.0020186752080917,-0.0200010128319263,0.0193060897290706,-12.92619514465332,0,0,29.32659149169922,1,1,1000,1000,6.799779,0,0.0020186752080917,0.0020186752080917,0.0,0,0.0020186752080917
1778782191.8598351,75044970,1,-0.0228159166872501,-0.0213594678789377,0.0018940791487693,-0.0207610707730054,0.0169405043125152,-12.922378540039062,0,0,29.32659149169922,1,1,760,800,6.799779,0,0.0018940791487693,0.0018940791487693,0.0,0,0.0018940791487693
1778782191.8998191,75084954,0,-0.0169026535004377,-0.0170357059687376,0.0019816663116216,-0.0217587873339653,0.0203582234680652,-11.725970268249512,0,0,29.32868003845215,1,1,1000,1000,6.839763,0,0.0019816663116216,0.0019816663116216,0.0,0,0.0019816663116216
1778782191.8998191,75084954,1,-0.0167571306228637,-0.0170260146260261,0.0021144058555364,-0.0199435148388147,0.0193342305719852,-11.720221519470217,0,0,29.32868003845215,1,1,760,800,6.839763,0,0.0021144058555364,0.0021144058555364,0.0,0,0.0021144058555364
1778782191.9398031,75124938,0,-0.0125736258924007,-0.0120150838047266,0.0020387656986713,-0.0184518862515687,0.0165591593831777,-10.683677673339844,0,0,29.33076858520508,1,1,1000,1000,6.879747,0,0.0020387656986713,0.0020387656986713,0.0,0,0.0020387656986713
1778782191.9398031,75124938,1,-0.0125390104949474,-0.011904489248991,0.0020511492621153,-0.0184421557933092,0.0172621980309486,-10.676765441894531,0,0,29.33076858520508,1,1,760,800,6.879747,0,0.0020511492621153,0.0020511492621153,0.0,0,0.0020511492621153
1778782191.979787,75164922,0,-0.0069367983378469,-0.0070200953632593,0.0020496118813753,-0.0136172510683536,0.0121757956221699,-9.89777660369873,0,0,29.33285903930664,1,1,1000,1000,6.919731,0,0.0020496118813753,0.0020496118813753,0.0,0,0.0020496118813753
1778782191.979787,75164922,1,-0.0071374326944351,-0.0072583411820232,0.0020093375351279,-0.0152457095682621,0.0130252940580248,-9.896722793579102,0,0,29.33285903930664,1,1,760,800,6.919731,0,0.0020093375351279,0.0020093375351279,0.0,0,0.0020093375351279
1778782192.019771,75204906,0,-0.0034630382433533,-0.0035491604357957,0.0019849294330924,-0.0092169120907783,0.0079327654093503,-9.403238296508787,0,0,29.33494758605957,1,1,1000,1000,6.959715,0,0.0019849294330924,0.0019849294330924,0.0,0,0.0019849294330924
1778782192.019771,75204906,1,-0.003295301226899,-0.0036586401984095,0.0020281623583287,-0.0124727515503764,0.0085243405774235,-9.400031089782717,0,0,29.33494758605957,1,1,760,800,6.959715,0,0.0020281623583287,0.0020281623583287,0.0,0,0.0020281623583287
1778782192.059755,75244890,0,1.4285515135270543e-05,0.0006169330445118,0.0019473630236461,-0.0059152087196707,0.0044335564598441,-9.172958374023438,0,0,29.3370361328125,1,1,1000,1000,6.999699,0,0.0019473630236461,0.0019473630236461,0.0,0,0.0019473630236461
1778782192.059755,75244890,1,9.074779518414287e-05,0.0004165002028457,0.0019843778572976,-0.003714217338711,0.0005671303952112,-9.17172145843506,0,0,29.3370361328125,1,1,760,800,6.999699,0,0.0019843778572976,0.0019843778572976,0.0,0,0.0019843778572976
1778782192.099739,75284874,0,0.0041449661366641,0.0043838475830852,0.0019171303138136,-0.0013126507401466,-0.0005739955231547,-9.16087532043457,0,0,29.3391227722168,1,1,1000,1000,7.039683,0,0.0019171303138136,0.0019171303138136,0.0,0,0.0019171303138136
1778782192.099739,75284874,1,0.0041833473369479,0.0043782144784927,0.0020213793031871,-0.0041571082547307,0.0012835130328312,-9.161050796508787,0,0,29.3391227722168,1,1,760,800,7.039683,0,0.0020213793031871,0.0020213793031871,0.0,0,0.0020213793031871
1778782192.139723,75324858,0,0.0087604653090238,0.0089336680248379,0.0018445962341502,0.0003990601107943,-0.0020149429328739,-9.313695907592772,0,0,29.34121322631836,1,1,1000,1000,7.079667,0,0.0018445962341502,0.0018445962341502,0.0,0,0.0018445962341502
1778782192.139723,75324858,1,0.0087137725204229,0.0088756000623106,0.0019138193456456,-0.0009666460100561,-0.0008502650307491,-9.317495346069336,0,0,29.34121322631836,1,1,760,800,7.079667,0,0.0019138193456456,0.0019138193456456,0.0,0,0.0019138193456456
1778782192.179707,75364842,0,0.0102075301110744,0.0103700393810868,0.0017765183001756,0.0010977776255458,-0.0023798428010195,-9.553755760192873,0,0,29.343299865722656,1,1,1000,1000,7.119651,0,0.0017765183001756,0.0017765183001756,0.0,0,0.0017765183001756
1778782192.179707,75364842,1,0.0101959062740206,0.010286696255207,0.0017069038003683,-0.001079935580492,-0.0053170062601566,-9.555211067199709,0,0,29.343299865722656,1,1,760,800,7.119651,0,0.0017069038003683,0.0017069038003683,0.0,0,0.0017069038003683
1778782192.219691,75404826,0,0.011454445309937,0.0112244868651032,0.0017095585353672,-0.0016149145085364,-0.0012161289341747,-9.825748443603516,0,0,29.34538650512696,1,1,1000,1000,7.159635,0,0.0017095585353672,0.0017095585353672,0.0,0,0.0017095585353672
1778782192.219691,75404826,1,0.0115468520671129,0.011238757520914,0.0015539015876129,-0.0005417846841737,-0.0015760378446429,-9.825302124023438,0,0,29.34538650512696,1,1,760,800,7.159635,0,0.0015539015876129,0.0015539015876129,0.0,0,0.0015539015876129
1778782192.259675,75444810,0,0.0130164688453078,0.012892946600914,0.001660602283664,-0.0020673184189945,4.67144709546119e-05,-10.0939302444458,0,0,29.347475051879883,1,1,1000,1000,7.199619,0,0.001660602283664,0.001660602283664,0.0,0,0.001660602283664
1778782192.259675,75444810,1,0.013002011924982,0.0128409722819924,0.0017251928802579,-0.0011525652371346,-0.0016081291250884,-10.093350410461426,0,0,29.347475051879883,1,1,760,800,7.199619,0,0.0017251928802579,0.0017251928802579,0.0,0,0.0017251928802579
1778782192.299659,75484794,0,0.0146880205720663,0.0143226878717541,0.0016779376892372,-0.0041342261247336,0.0034544493537396,-10.330074310302734,0,0,29.349559783935547,1,1,1000,1000,7.239603,0,0.0016779376892372,0.0016779376892372,0.0,0,0.0016779376892372
1778782192.299659,75484794,1,0.0146920131519436,0.0142077095806598,0.0017317996826022,-0.0038843369111418,0.0028354250825941,-10.329911231994627,0,0,29.349559783935547,1,1,760,800,7.239603,0,0.0017317996826022,0.0017317996826022,0.0,0,0.0017317996826022
1778782192.339643,75524778,0,0.0134613327682018,0.0146900499239563,0.0016451864503324,-0.0056694019585847,0.0037815496325492,-10.514369010925291,0,0,29.35164833068848,1,1,1000,1000,7.279587,0,0.0016451864503324,0.0016451864503324,0.0,0,0.0016451864503324
1778782192.339643,75524778,1,0.0134054142981767,0.0147426091134548,0.0016905914526432,-0.0037980168126523,0.0019477878231555,-10.514532089233398,0,0,29.35164833068848,1,1,760,800,7.279587,0,0.0016905914526432,0.0016905914526432,0.0,0,0.0016905914526432
1778782192.3796272,75564762,0,0.014250555075705,0.0133282067254185,0.0016290789935737,-0.0065430966205894,0.0047695408575236,-10.658286094665527,0,0,29.35373306274414,1,1,1000,1000,7.319571,0,0.0016290789935737,0.0016290789935737,0.0,0,0.0016290789935737
1778782192.3796272,75564762,1,0.0142530631273984,0.0131988674402236,0.0016788826324045,-0.0055053303949534,0.0054796370677649,-10.659326553344728,0,0,29.35373306274414,1,1,760,800,7.319571,0,0.0016788826324045,0.0016788826324045,0.0,0,0.0016788826324045
1778782192.4196112,75604746,0,0.0169363170862197,0.0152250034734606,0.001515386160463,-0.0068865595385432,0.0067180427722632,-10.750333786010742,0,0,29.35581970214844,1,1,1000,1000,7.359555,0,0.001515386160463,0.001515386160463,0.0,0,0.001515386160463
1778782192.4196112,75604746,1,0.0168904233723878,0.0152348838746547,0.0015320775564759,-0.0085527300834655,0.0040484201163053,-10.75201416015625,0,0,29.35581970214844,1,1,760,800,7.359555,0,0.0015320775564759,0.0015320775564759,0.0,0,0.0015320775564759
1778782192.4595952,75644730,0,0.0157644227147102,0.0139319514855742,0.0014840661315247,-0.0078704440966248,0.0069231102243065,-10.810874938964844,0,0,29.35790634155273,1,1,1000,1000,7.399539,0,0.0014840661315247,0.0014840661315247,0.0,0,0.0014840661315247
1778782192.4595952,75644730,1,0.0157694406807422,0.0140574425458908,0.0013548678252846,-0.0072822114452719,0.0047918362542986,-10.811891555786133,0,0,29.35790634155273,1,1,760,800,7.399539,0,0.0013548678252846,0.0013548678252846,0.0,0,0.0013548678252846
1778782192.4995792,75684714,0,0.0130162574350833,0.0116012701764702,0.0015007997862994,-0.0075919446535408,0.0060221147723495,-10.83307647705078,0,0,29.3599910736084,1,1,1000,1000,7.439523,0,0.0015007997862994,0.0015007997862994,0.0,0,0.0015007997862994
1778782192.4995792,75684714,1,0.0130620282143354,0.0115933530032634,0.0014865525299683,-0.0089001869782805,0.0050781620666384,-10.833013534545898,0,0,29.3599910736084,1,1,760,800,7.439523,0,0.0014865525299683,0.0014865525299683,0.0,0,0.0014865525299683
1778782192.5395632,75724698,0,0.0118730422109365,0.010569654405117,0.0014669988304376,-0.0079816430807113,0.004995581228286,-10.848471641540527,0,0,29.36207771301269,1,1,1000,1000,7.479507,0,0.0014669988304376,0.0014669988304376,0.0,0,0.0014669988304376
1778782192.5395632,75724698,1,0.0117884976789355,0.0106500806286931,0.001375692198053,-0.0103410836309194,0.005119998473674,-10.849444389343262,0,0,29.36207771301269,1,1,760,800,7.479507,0,0.001375692198053,0.001375692198053,0.0,0,0.001375692198053
1778782192.5795472,75764682,0,0.0118027869611978,0.0116446614265441,0.0014465609565377,-0.0095965657383203,0.0069767544046044,-10.83815860748291,0,0,29.36416244506836,1,1,1000,1000,7.519491,0,0.0014465609565377,0.0014465609565377,0.0,0,0.0014465609565377
1778782192.5795472,75764682,1,0.0116520347073674,0.0114504508674144,0.0012916338164359,-0.0098048858344554,0.0075086345896124,-10.838582992553713,0,0,29.36416244506836,1,1,760,800,7.519491,0,0.0012916338164359,0.0012916338164359,0.0,0,0.0012916338164359
1778782192.6195312,75804666,0,0.0107530979439616,0.0106093827635049,0.0014314379077404,-0.0086897388100624,0.0074409143999218,-10.809792518615724,0,0,29.36624526977539,1,1,1000,1000,7.559475,0,0.0014314379077404,0.0014314379077404,0.0,0,0.0014314379077404
1778782192.6195312,75804666,1,0.0108209401369094,0.0107312481850385,0.001573778106831,-0.0095402710139751,0.0079184919595718,-10.80947971343994,0,0,29.36624526977539,1,1,760,800,7.559475,0,0.001573778106831,0.001573778106831,0.0,0,0.001573778106831
1778782192.6595151,75844650,0,0.0117473546415567,0.0076724160462617,0.0014335318701341,-0.009094538167119,0.007018313743174,-10.808697700500488,0,0,29.36833000183105,1,1,1000,1000,7.599459,0,0.0014335318701341,0.0014335318701341,0.0,0,0.0014335318701341
1778782192.6595151,75844650,1,0.0116247851401567,0.0076113827526569,0.0012820656411349,-0.0077003133483231,0.008748572319746,-10.809863090515137,0,0,29.36833000183105,1,1,760,800,7.599459,0,0.0012820656411349,0.0012820656411349,0.0,0,0.0012820656411349
1778782192.6994991,75884634,0,0.0094217928126454,0.0097219897434115,0.0014235926792025,-0.0094979228451848,0.0071117877960205,-10.806074142456056,0,0,29.37041473388672,1,1,1000,1000,7.639443,0,0.0014235926792025,0.0014235926792025,0.0,0,0.0014235926792025
1778782192.6994991,75884634,1,0.0095305945724248,0.0098621100187301,0.0013375077396631,-0.0097233541309833,0.0063298968598246,-10.806062698364258,0,0,29.37041473388672,1,1,760,800,7.639443,0,0.0013375077396631,0.0013375077396631,0.0,0,0.0013375077396631
1778782192.739483,75924618,0,0.0088461004197597,0.0078805675730109,0.0015162274939939,-0.0088603887706995,0.0065268473699688,-10.810258865356444,0,0,29.372499465942383,1,1,1000,1000,7.679427,0,0.0015162274939939,0.0015162274939939,0.0,0,0.0015162274939939
1778782192.739483,75924618,1,0.0088473306968808,0.0077531379647552,0.0015458452980965,-0.0080957766622304,0.0076295947656035,-10.809391021728516,0,0,29.372499465942383,1,1,760,800,7.679427,0,0.0015458452980965,0.0015458452980965,0.0,0,0.0015458452980965
1778782192.779467,75964602,0,0.0109469760209321,0.0054715946316719,0.0014927815645933,-0.0093120094388723,0.0073339478112757,-10.816943168640137,0,0,29.37458229064941,1,1,1000,1000,7.719411,0,0.0014927815645933,0.0014927815645933,0.0,0,0.0014927815645933
1778782192.779467,75964602,1,0.0108842514455318,0.0053223427385091,0.0016085407696664,-0.0078896470367908,0.0060829520225524,-10.816017150878906,0,0,29.37458229064941,1,1,760,800,7.719411,0,0.0016085407696664,0.0016085407696664,0.0,0,0.0016085407696664
1778782192.819451,76004586,0,0.0052472613751888,0.0089344270527362,0.0015234315069392,-0.0080398926511406,0.0071700853295624,-10.825360298156738,0,0,29.376665115356445,1,1,1000,1000,7.759395,0,0.0015234315069392,0.0015234315069392,0.0,0,0.0015234315069392
1778782192.819451,76004586,1,0.0051369424909353,0.0089273070916533,0.0015665739774703,-0.011465854011476,0.0070767593570053,-10.826336860656738,0,0,29.376665115356445,1,1,760,800,7.759395,0,0.0015665739774703,0.0015665739774703,0.0,0,0.0015665739774703
1778782192.859435,76044570,0,0.0078660333529114,0.0044104186818003,0.0014438986545428,-0.0082751335576176,0.0069108139723539,-10.832061767578123,0,0,29.37874794006348,1,1,1000,1000,7.799379,0,0.0014438986545428,0.0014438986545428,0.0,0,0.0014438986545428
1778782192.859435,76044570,1,0.0077979732304811,0.0044170198962092,0.0014381470391526,-0.0087426081299781,0.0058584790676832,-10.83326530456543,0,0,29.37874794006348,1,1,760,800,7.799379,0,0.0014381470391526,0.0014381470391526,0.0,0,0.0014381470391526
1778782192.899419,76084554,0,0.0029391287826001,0.0031040718313306,0.0015552730765193,-0.0093265892937779,0.0059530469588935,-10.84688949584961,0,0,29.38083267211914,1,1,1000,1000,7.839363,0,0.0015552730765193,0.0015552730765193,0.0,0,0.0015552730765193
1778782192.899419,76084554,1,0.0028058979660272,0.0031597900670021,0.0015582607593387,-0.007539109326899,0.0084092523902654,-10.847522735595703,0,0,29.38083267211914,1,1,760,800,7.839363,0,0.0015582607593387,0.0015582607593387,0.0,0,0.0015582607593387
1778782192.939403,76124538,0,0.0060538682155311,0.0067232581786811,0.0015495039988309,-0.0086375521495938,0.0060872407630085,-10.862521171569824,0,0,29.38291358947754,1,1,1000,1000,7.879347,0,0.0015495039988309,0.0015495039988309,0.0,0,0.0015495039988309
1778782192.939403,76124538,1,0.0062073674052953,0.006702410057187,0.0013407168444246,-0.0037068743258714,0.0051129041239619,-10.86011791229248,0,0,29.38291358947754,1,1,760,800,7.879347,0,0.0013407168444246,0.0013407168444246,0.0,0,0.0013407168444246
1778782192.979387,76164522,0,0.00368079287,0.0040184031240642,0.001565720885992,-0.0094545148313045,0.0069228811189532,-10.866113662719728,0,0,29.384994506835938,1,1,1000,1000,7.919331,0,0.001565720885992,0.001565720885992,0.0,0,0.001565720885992
1778782192.979387,76164522,1,0.0037439120933413,0.0038366632070392,0.0013350462540984,-0.0066657224670052,0.0054729031398892,-10.862927436828612,0,0,29.384994506835938,1,1,760,800,7.919331,0,0.0013350462540984,0.0013350462540984,0.0,0,0.0013350462540984
1778782193.019371,76204506,0,0.0023105591535568,0.0020144423469901,0.0014908740995451,-0.0068273162469267,0.0072082290425896,-10.865928649902344,0,0,29.38707733154297,1,1,1000,1000,7.959315,0,0.0014908740995451,0.0014908740995451,0.0,0,0.0014908740995451
1778782193.019371,76204506,1,0.0024533558171242,0.0020828591659665,0.0015280008083209,-0.0113891446962952,0.0033576576970517,-10.864741325378418,0,0,29.38707733154297,1,1,760,800,7.959315,0,0.0015280008083209,0.0015280008083209,0.0,0,0.0015280008083209
1778782193.059355,76244490,0,0.004258235450834,0.0029476815834641,0.0015735962660983,-0.0067818975076079,0.0064767738804221,-10.887317657470703,0,0,29.38916015625,1,1,1000,1000,7.999299,0,0.0015735962660983,0.0015735962660983,0.0,0,0.0015735962660983
1778782193.059355,76244490,1,0.0042302096262574,0.0031490540131926,0.0015096908900886,-0.0082410397008061,0.0045845308341085,-10.887496948242188,0,0,29.38916015625,1,1,760,800,7.999299,0,0.0015096908900886,0.0015096908900886,0.0,0,0.0015096908900886
1778782193.099339,76284474,0,0.0037053823471069,0.0027043216396123,0.0015289183938875,-0.0080028250813484,0.0046266615390777,-10.871504783630373,0,0,29.3912410736084,1,1,1000,1000,8.039283,0,0.0015289183938875,0.0015289183938875,0.0,0,0.0015289183938875
1778782193.099339,76284474,1,0.0036199623718857,0.0027197049930691,0.0015066997148096,-0.0094107575714588,0.0054107750765979,-10.869396209716797,0,0,29.3912410736084,1,1,760,800,8.039283,0,0.0015066997148096,0.0015066997148096,0.0,0,0.0015066997148096
1778782193.139323,76324458,0,0.0016733774682506,0.0026181298308074,0.0015747060533612,-0.0076341135427355,0.0050968374125659,-10.892144203186035,0,0,29.3933219909668,1,1,1000,1000,8.079267,0,0.0015747060533612,0.0015747060533612,0.0,0,0.0015747060533612
1778782193.139323,76324458,1,0.0018271789886057,0.0028148544952273,0.0017091067275032,-0.0077759372070431,0.0046110353432595,-10.892016410827637,0,0,29.3933219909668,1,1,760,800,8.079267,0,0.0017091067275032,0.0017091067275032,0.0,0,0.0017091067275032
1778782193.1793072,76364442,0,0.0016331439837813,0.0024397124070674,0.0015662282239645,-0.0070563307963311,0.0055483989417552,-10.872997283935549,0,0,29.395402908325195,1,1,1000,1000,8.119251,0,0.0015662282239645,0.0015662282239645,0.0,0,0.0015662282239645
1778782193.1793072,76364442,1,0.0016874971333891,0.0025253323838114,0.0016286432510241,-0.0101415356621146,0.0046120854094624,-10.873190879821776,0,0,29.395402908325195,1,1,760,800,8.119251,0,0.0016286432510241,0.0016286432510241,0.0,0,0.0016286432510241
1778782193.2192912,76404426,0,0.0015676137991249,0.0002790213911794,0.0016511538997292,-0.0070871505886316,0.0058454638347029,-10.89087963104248,0,0,29.3974838256836,1,1,1000,1000,8.159235,0,0.0016511538997292,0.0016511538997292,0.0,0,0.0016511538997292
1778782193.2192912,76404426,1,0.0017812150763347,0.0004280598659534,0.0016942330403253,-0.0085998121649026,0.0045098052360117,-10.89146327972412,0,0,29.3974838256836,1,1,760,800,8.159235,0,0.0016942330403253,0.0016942330403253,0.0,0,0.0016942330403253
1778782193.2592752,76444410,0,0.0014941616682335,0.0005276319570839,0.0015672469744458,-0.0065314988605678,0.0044072023592889,-10.870100021362305,0,0,29.39956283569336,1,1,1000,1000,8.199219,0,0.0015672469744458,0.0015672469744458,0.0,0,0.0015672469744458
1778782193.2592752,76444410,1,0.0015504143666476,0.000439321011072,0.0015666295075789,-0.0085819270461797,0.0070416047237813,-10.87078094482422,0,0,29.39956283569336,1,1,760,800,8.199219,0,0.0015666295075789,0.0015666295075789,0.0,0,0.0015666295075789
1778782193.2992592,76484394,0,-0.0014013078762218,0.0015590976690873,0.0015703146345913,-0.0059145144186913,0.004487972240895,-10.886504173278809,0,0,29.40164375305176,1,1,1000,1000,8.239203,0,0.0015703146345913,0.0015703146345913,0.0,0,0.0015703146345913
1778782193.2992592,76484394,1,-0.0015043099410831,0.0014671190874651,0.0015000113053247,-0.0069657322019338,0.0046736421063542,-10.88686466217041,0,0,29.40164375305176,1,1,760,800,8.239203,0,0.0015000113053247,0.0015000113053247,0.0,0,0.0015000113053247
1778782193.3392432,76524378,0,-0.0009514497942291,0.0014556379755958,0.0015855969395488,-0.0068300296552479,0.003686262993142,-10.86528205871582,0,0,29.403722763061523,1,1,1000,1000,8.279187,0,0.0015855969395488,0.0015855969395488,0.0,0,0.0015855969395488
1778782193.3392432,76524378,1,-0.0008618915453553,0.0013399380259215,0.00154348264914,-0.006820369977504,0.0044977804645895,-10.864542007446287,0,0,29.403722763061523,1,1,760,800,8.279187,0,0.00154348264914,0.00154348264914,0.0,0,0.00154348264914
1778782193.3792272,76564362,0,0.0001467912079533,-0.0005476444493979,0.0014945695875212,-0.0058056581765413,0.0037346938624978,-10.879454612731934,0,0,29.40580177307129,1,1,1000,1000,8.319171,0,0.0014945695875212,0.0014945695875212,0.0,0,0.0014945695875212
1778782193.3792272,76564362,1,0.0002605798945296,-0.0004681270802393,0.0016774011310189,-0.0034754588268697,0.0050520901568233,-10.879412651062012,0,0,29.40580177307129,1,1,760,800,8.319171,0,0.0016774011310189,0.0016774011310189,0.0,0,0.0016774011310189
1778782193.420044,76605179,0,8.494898065691814e-05,-0.0003621403011493,0.0014847371494397,-0.0043337997049093,0.0034401933662593,-10.840948104858398,0,0,29.407882690429688,1,1,1000,1000,8.359988,0,0.0014847371494397,0.0014847371494397,0.0,0,0.0014847371494397
1778782193.420044,76605179,1,0.000111475092126,-0.0003422742011025,0.0016190498135983,-0.0037352247163653,0.0029020647052675,-10.840500831604004,0,0,29.407882690429688,1,1,760,800,8.359988,0,0.0016190498135983,0.0016190498135983,0.0,0,0.0016190498135983
1778782193.460028,76645163,0,0.000196090186364,-0.0001416210434399,0.0013634021161124,-0.0062768692150712,0.0025941920466721,-10.748035430908203,0,0,29.40995979309082,1,1,1000,1000,8.399972,0,0.0013634021161124,0.0013634021161124,0.0,0,0.0013634021161124
1778782193.460028,76645163,1,0.0002237406733911,-0.0003322438278701,0.0014924333663657,-0.0035816142335534,0.0025726857129484,-10.743023872375488,0,0,29.40995979309082,1,1,760,800,8.399972,0,0.0014924333663657,0.0014924333663657,0.0,0,0.0014924333663657
1778782193.500012,76685147,0,0.0001785773201845,0.0006558669265359,0.0015034098178148,-0.0053539290092885,0.0034034131094813,-10.637636184692385,0,0,29.412038803100582,1,1,1000,1000,8.439956,0,0.0015034098178148,0.0015034098178148,0.0,0,0.0015034098178148
1778782193.500012,76685147,1,0.0002144874015357,0.0007083374075591,0.0015853834338486,-0.004623438231647,0.0021544005721807,-10.640342712402344,0,0,29.412038803100582,1,1,760,800,8.439956,0,0.0015853834338486,0.0015853834338486,0.0,0,0.0015853834338486
1778782193.539996,76725131,0,-4.459499905351549e-05,0.0010259051341563,0.0015385971637442,-0.0052744839340448,0.0034879439044743,-10.536523818969728,0,0,29.41411590576172,1,1,1000,1000,8.47994,0,0.0015385971637442,0.0015385971637442,0.0,0,0.0015385971637442
1778782193.539996,76725131,1,-2.4732045858399943e-05,0.0009502217872068,0.0015149891842156,-0.0077552627772092,0.0031579022761434,-10.53830623626709,0,0,29.41411590576172,1,1,760,800,8.47994,0,0.0015149891842156,0.0015149891842156,0.0,0,0.0015149891842156
1778782193.57998,76765115,0,-0.0001374765997752,0.001000938238576,0.0015217919135466,-0.0040304264985024,0.0009812973439693,-10.442388534545898,0,0,29.416194915771484,1,1,1000,1000,8.519924,0,0.0015217919135466,0.0015217919135466,0.0,0,0.0015217919135466
1778782193.57998,76765115,1,-0.0001359756570309,0.0008671570103615,0.0014901123940944,-0.0051207700744271,0.0033851445186883,-10.444535255432127,0,0,29.416194915771484,1,1,760,800,8.519924,0,0.0014901123940944,0.0014901123940944,0.0,0,0.0014901123940944
1778782193.619964,76805099,0,-0.0011634558904916,0.0001720645232126,0.0014749013353139,-0.004473001230508,0.0023259718436747,-10.35651969909668,0,0,29.41827392578125,1,1,1000,1000,8.559908,0,0.0014749013353139,0.0014749013353139,0.0,0,0.0014749013353139
1778782193.619964,76805099,1,-0.0012948757503181,0.0001384758215863,0.0012826403835788,-0.0031174551695585,0.0023620692081749,-10.356781959533691,0,0,29.41827392578125,1,1,760,800,8.559908,0,0.0012826403835788,0.0012826403835788,0.0,0,0.0012826403835788
1778782193.659948,76845083,0,-0.0018720270600169,-0.0007453375146724,0.0014251718530431,-0.0042158984579145,0.0005253279814496,-10.274250030517578,0,0,29.42034912109375,1,1,1000,1000,8.599892,0,0.0014251718530431,0.0014251718530431,0.0,0,0.0014251718530431
1778782193.659948,76845083,1,-0.0019681686535477,-0.0007417283486574,0.0013845738722011,-0.0047772582620382,0.0026262777391821,-10.27363395690918,0,0,29.42034912109375,1,1,760,800,8.599892,0,0.0013845738722011,0.0013845738722011,0.0,0,0.0013845738722011
1778782193.699932,76885067,0,-0.0015436445828527,0.0003684964613057,0.0014920325484126,-0.0039953058585524,0.0010173709597438,-10.199665069580078,0,0,29.422426223754883,1,1,1000,1000,8.639876,0,0.0014920325484126,0.0014920325484126,0.0,0,0.0014920325484126
1778782193.699932,76885067,1,-0.0017389976419508,0.0002257017476949,0.0014600695576518,-0.0023431102745234,0.0023171061184257,-10.200340270996094,0,0,29.422426223754883,1,1,760,800,8.639876,0,0.0014600695576518,0.0014600695576518,0.0,0,0.0014600695576518
1778782193.739916,76925051,0,-0.0015819668769836,0.000911405251827,0.0014428435824811,-0.003681550733745,0.0008255745633505,-10.130162239074709,0,0,29.4245548248291,1,1,1000,1000,8.67986,0,0.0014428435824811,0.0014428435824811,0.0,0,0.0014428435824811
1778782193.739916,76925051,1,-0.001775890123099,0.0007649629842489,0.00147570297122,-0.0024803748819977,0.0012752603506669,-10.132062911987305,0,0,29.4245548248291,1,1,760,800,8.67986,0,0.00147570297122,0.00147570297122,0.0,0,0.00147570297122
1778782193.7799,76965035,0,0.0006759357638657,-0.0005127763724885,0.0014612657250836,-0.0035515949130058,0.0011429879814386,-10.070707321166992,0,0,29.426631927490234,1,1,1000,1000,8.719844,0,0.0014612657250836,0.0014612657250836,0.0,0,0.0014612657250836
1778782193.7799,76965035,1,0.0006059208535589,-0.000511142425239,0.001469939481467,-0.0049240654334425,-0.0024039186537265,-10.07063102722168,0,0,29.426631927490234,1,1,760,800,8.719844,0,0.001469939481467,0.001469939481467,0.0,0,0.001469939481467
1778782193.819884,77005019,0,0.0003742311382666,-0.00187898427248,0.0015171157428994,-0.0035251574590802,0.0011695779394358,-10.012556076049805,0,0,29.428709030151367,1,1,1000,1000,8.759828,0,0.0015171157428994,0.0015171157428994,0.0,0,0.0015171157428994
1778782193.819884,77005019,1,0.000490040925797,-0.0020076013170182,0.0014000352239236,-0.0051931729540228,0.0010147368302568,-10.01454257965088,0,0,29.428709030151367,1,1,760,800,8.759828,0,0.0014000352239236,0.0014000352239236,0.0,0,0.0014000352239236
1778782193.859868,77045003,0,-0.0029520778916776,0.0013103628298267,0.0015215829480439,-0.0019611231982707,0.0007488132105208,-9.966419219970703,0,0,29.4307861328125,1,1,1000,1000,8.799812,0,0.0015215829480439,0.0015215829480439,0.0,0,0.0015215829480439
1778782193.859868,77045003,1,-0.0027086853515356,0.0014297032030299,0.0015185605734586,-0.0035438349004834,0.0010702630970627,-9.965813636779783,0,0,29.4307861328125,1,1,760,800,8.799812,0,0.0015185605734586,0.0015185605734586,0.0,0,0.0015185605734586
1778782193.899852,77084987,0,-0.000946020882111,-0.0015468127094209,0.0014869408914819,-0.0023070173338055,-0.0014260656898841,-9.920639038085938,0,0,29.43280792236328,1,1,1000,1000,8.839796,0,0.0014869408914819,0.0014869408914819,0.0,0,0.0014869408914819
1778782193.899852,77084987,1,-0.0011143632000312,-0.0014485917054116,0.0017409656429663,-0.0041372240521013,-0.0005990214413031,-9.920323371887209,0,0,29.43280792236328,1,1,760,800,8.839796,0,0.0017409656429663,0.0017409656429663,0.0,0,0.0017409656429663
1778782193.939836,77124971,0,-0.0014579491689801,-0.0020049393642693,0.0014512750785797,-0.0015729827573522,-0.0002292511926498,-9.893543243408203,0,0,29.43488311767578,1,1,1000,1000,8.87978,0,0.0014512750785797,0.0014512750785797,0.0,0,0.0014512750785797
1778782193.939836,77124971,1,-0.0015058768913149,-0.0020501422695815,0.0013184155104681,-0.0032784240320324,-0.0003856044204439,-9.891529083251951,0,0,29.43488311767578,1,1,760,800,8.87978,0,0.0013184155104681,0.0013184155104681,0.0,0,0.0013184155104681
1778782193.97982,77164955,0,-0.0014039316447451,0.0013152465689927,0.0013850791146978,-0.0027287853881716,-0.0004938438069075,-9.859172821044922,0,0,29.43695831298828,1,1,1000,1000,8.919764,0,0.0013850791146978,0.0013850791146978,0.0,0,0.0013850791146978
1778782193.97982,77164955,1,-0.0013508881675079,0.001282772864215,0.0015268618008121,-0.0020290014799684,0.0005742101930081,-9.858480453491213,0,0,29.43695831298828,1,1,760,800,8.919764,0,0.0015268618008121,0.0015268618008121,0.0,0,0.0015268618008121
1778782194.019804,77204939,0,0.0008069539326243,-0.002335792640224,0.0012171776033937,-0.0035497236531227,-0.0001593314518686,-9.827425956726074,0,0,29.43903350830078,1,1,1000,1000,8.959748,0,0.0012171776033937,0.0012171776033937,0.0,0,0.0012171776033937
1778782194.019804,77204939,1,0.0007501877844333,-0.0022984354291111,0.0012669268762692,-0.0019457845482975,0.0020390804857015,-9.82717514038086,0,0,29.43903350830078,1,1,760,800,8.959748,0,0.0012669268762692,0.0012669268762692,0.0,0,0.0012669268762692
1778782194.0597882,77244923,0,-0.0027066406328231,-0.0018102332251146,0.0008734278962947,-0.0023173973895609,-0.0009753854828886,-9.795961380004885,0,0,29.44110870361328,1,1,1000,1000,8.999732,0,0.0008734278962947,0.0008734278962947,0.0,0,0.0008734278962947
1778782194.0597882,77244923,1,-0.0026728957891464,-0.001895323395729,0.0009132111445069,-0.0035744477063417,-0.0008179285214282,-9.79737949371338,0,0,29.44110870361328,1,1,760,800,8.999732,0,0.0009132111445069,0.0009132111445069,0.0,0,0.0009132111445069
1778782194.0997722,77284907,0,0.0003600048657972,-0.001477338722907,0.0007829032838344,-0.0015394673682749,-0.0012083086185157,-9.78116512298584,0,0,29.44318389892578,1,1,1000,1000,9.039716,0,0.0007829032838344,0.0007829032838344,0.0,0,0.0007829032838344
1778782194.0997722,77284907,1,0.0005175598780624,-0.0016024401411414,0.0010051970602944,-0.0016554449684917,-0.0010141084203496,-9.778903007507324,0,0,29.44318389892578,1,1,760,800,9.039716,0,0.0010051970602944,0.0010051970602944,0.0,0,0.0010051970602944
1778782194.1397562,77324891,0,0.0007582096732221,-0.0003213231393601,0.0005774913588538,-0.0025779835414141,-0.0005649966769851,-9.762602806091309,0,0,29.44525718688965,1,1,1000,1000,9.0797,0,0.0005774913588538,0.0005774913588538,0.0,0,0.0005774913588538
1778782194.1397562,77324891,1,0.0008966962341219,-0.0001613753702258,0.0008094343356788,-0.0014831094304099,-0.0020554820075631,-9.761908531188965,0,0,29.44525718688965,1,1,760,800,9.0797,0,0.0008094343356788,0.0008094343356788,0.0,0,0.0008094343356788
1778782194.17974,77364875,0,-0.0020793532021343,-0.0001787212968338,0.0003375755622982,-0.0009436301188543,-0.0014532124623656,-9.747766494750977,0,0,29.44733047485352,1,1,1000,1000,9.119684,0,0.0003375755622982,0.0003375755622982,0.0,0,0.0003375755622982
1778782194.17974,77364875,1,-0.0020378772169351,-0.0002740488853305,0.0005172753008082,-0.0030097444541752,-0.0019726785831153,-9.747039794921877,0,0,29.44733047485352,1,1,760,800,9.119684,0,0.0005172753008082,0.0005172753008082,0.0,0,0.0005172753008082
1778782194.219724,77404859,0,-0.0016512277070432,-0.0018997150473296,6.951623072382063e-05,-0.0017334830481559,-0.0023741559125483,-9.732895851135254,0,0,29.449405670166016,1,1,1000,1000,9.159668,0,6.951623072382063e-05,6.951623072382063e-05,0.0,0,6.951623072382063e-05
1778782194.219724,77404859,1,-0.001716797822155,-0.0017731266561895,-1.1566817192942835e-06,-0.0024362276308238,0.0004724150930996,-9.732070922851562,0,0,29.449405670166016,1,1,760,800,9.159668,0,-1.1566817192942835e-06,-1.1566817192942835e-06,0.0,0,-1.1566817192942835e-06
1778782194.259708,77444843,0,-0.0013590642483904,-0.0015730756567791,0.0002097967953886,-0.0015138331800699,-0.0007340252632275,-9.73415756225586,0,0,29.45147705078125,1,1,1000,1000,9.199652,0,0.0002097967953886,0.0002097967953886,0.0,0,0.0002097967953886
1778782194.259708,77444843,1,-0.0015434912638738,-0.0016032408457249,0.0003145628725178,-0.0021318099461495,-0.0017676097340881,-9.73279857635498,0,0,29.45147705078125,1,1,760,800,9.199652,0,0.0003145628725178,0.0003145628725178,0.0,0,0.0003145628725178
1778782194.299692,77484827,0,0.0007635279325768,-0.0011345418170094,-0.0003056271234527,-0.0019660859834402,-0.0011891452595591,-9.717354774475098,0,0,29.45355033874512,1,1,1000,1000,9.239636,0,-0.0003056271234527,-0.0003056271234527,0.0,0,-0.0003056271234527
1778782194.299692,77484827,1,0.000626791967079,-0.0010348146315664,-0.0004073021700605,-0.0003528473316691,-0.000564673973713,-9.71751880645752,0,0,29.45355033874512,1,1,760,800,9.239636,0,-0.0004073021700605,-0.0004073021700605,0.0,0,-0.0004073021700605
1778782194.339676,77524811,0,0.0007255704840645,-0.0004471715074032,-0.0006150460103526,-0.0015370452310889,-0.0019142490345984,-9.711366653442385,0,0,29.455623626708984,1,1,1000,1000,9.27962,0,-0.0006150460103526,-0.0006150460103526,0.0,0,-0.0006150460103526
1778782194.339676,77524811,1,0.0008445802377536,-0.0004001784254796,-0.0005567244952544,0.0001265179744223,-0.0013437044108286,-9.71250343322754,0,0,29.455623626708984,1,1,760,800,9.27962,0,-0.0005567244952544,-0.0005567244952544,0.0,0,-0.0005567244952544
1778782194.37966,77564795,0,0.0007859331672079,-0.0002894277567975,-0.0007571093156002,-0.000236570398556,-0.0012287579011172,-9.712024688720703,0,0,29.45769500732422,1,1,1000,1000,9.319604,0,-0.0007571093156002,-0.0007571093156002,0.0,0,-0.0007571093156002
1778782194.37966,77564795,1,0.0008677795995026,-0.0004901331849396,-0.0006138805765658,-0.0012012118240818,-0.0025510389823466,-9.710991859436035,0,0,29.45769500732422,1,1,760,800,9.319604,0,-0.0006138805765658,-0.0006138805765658,0.0,0,-0.0006138805765658
1778782194.419644,77604779,0,0.000802430207841,0.0027826947625726,-0.0006164914229884,-0.0001990350865526,-0.002213058527559,-9.70826530456543,0,0,29.459766387939453,1,1,1000,1000,9.359588,0,-0.0006164914229884,-0.0006164914229884,0.0,0,-0.0006164914229884
1778782194.419644,77604779,1,0.0008047359297052,0.002958990400657,-0.0007870098343119,-0.0027772146277129,-0.0013915793970227,-9.707481384277344,0,0,29.459766387939453,1,1,760,800,9.359588,0,-0.0007870098343119,-0.0007870098343119,0.0,0,-0.0007870098343119
1778782194.459628,77644763,0,0.0008074810029938,0.0024722684174776,-0.0005489023169502,-0.0004112071474082,-0.001373836537823,-9.709694862365724,0,0,29.46184158325196,1,1,1000,1000,9.399572,0,-0.0005489023169502,-0.0005489023169502,0.0,0,-0.0005489023169502
1778782194.459628,77644763,1,0.0006979585741646,0.0025502340868115,-0.0006362814456224,0.0008369607967324,-0.0011336889583617,-9.711149215698242,0,0,29.46184158325196,1,1,760,800,9.399572,0,-0.0006362814456224,-0.0006362814456224,0.0,0,-0.0006362814456224
