timestamp,TimeUS,I,GyrX,GyrY,GyrZ,AccX,AccY,AccZ,EG,EA,T,GH,AH,GHz,AHz,TimeSec,AttackActive_IMU,GyrZ_attacked,SoftwareSensor_GyrZ,Residual_GyrZ,DetectionFlag_GyrZ,Recovered_GyrZ
1778788392.699207,65884469,0,0.0009140516049228,0.0009033981477841,0.0009237399790436,4.852438723901287e-05,-0.0024303742684423,-9.817787170410156,0,0,28.840648651123047,1,1,1000,1000,0.0,0,0.0009237399790436,0.0009237399790436,0.0,0,0.0009237399790436
1778788392.699207,65884469,1,0.0008154634851962,0.0009601981728337,0.0007753984536975,-0.0009366731392219,0.0009079400333575,-9.818324089050291,0,0,28.840648651123047,1,1,760,800,0.0,0,0.0007753984536975,0.0007753984536975,0.0,0,0.0007753984536975
1778788392.740024,65925286,0,0.0009212211589328,0.0008525763405486,0.0009686308912932,-0.0017397566698491,-0.0010481998324394,-9.817962646484377,0,0,28.842857360839844,1,1,1000,1000,0.040817,0,0.0009686308912932,0.0009686308912932,0.0,0,0.0009686308912932
1778788392.740024,65925286,1,0.0009044568287208,0.0010468622203916,0.0010587552096694,-0.0028701031114906,-0.0019179234514012,-9.818723678588867,0,0,28.842803955078125,1,1,760,800,0.040817,0,0.0010587552096694,0.0010587552096694,0.0,0,0.0010587552096694
1778788392.780008,65965270,0,0.0008693089475855,0.0009351693443022,0.0008689555106684,-0.0009350695181638,-0.0011599268764257,-9.817306518554688,0,0,28.84501075744629,1,1,1000,1000,0.080801,0,0.0008689555106684,0.0008689555106684,0.0,0,0.0008689555106684
1778788392.780008,65965270,1,0.0010624532587826,0.0008150734938681,0.0009217590559273,-0.0008501830161549,-0.0005121081485413,-9.815150260925291,0,0,28.84495735168457,1,1,760,800,0.080801,0,0.0009217590559273,0.0009217590559273,0.0,0,0.0009217590559273
1778788392.819992,66005254,0,0.0009324351558461,0.0009828455513343,0.0009180665947496,-0.0016596168279647,-0.0011505000293254,-9.818524360656738,0,0,28.84716415405273,1,1,1000,1000,0.120785,0,0.0009180665947496,0.0009180665947496,0.0,0,0.0009180665947496
1778788392.819992,66005254,1,0.0008291936246678,0.0010278145782649,0.0009060758166015,-0.0029311494436115,-8.078003156697378e-05,-9.818509101867676,0,0,28.847110748291016,1,1,760,800,0.120785,0,0.0009060758166015,0.0009060758166015,0.0,0,0.0009060758166015
1778788392.859976,66045238,0,0.0009131389087997,0.0009303718688897,0.0009882593294605,-0.0004251505015417,-0.0006230555591173,-9.817291259765623,0,0,28.84931755065918,1,1,1000,1000,0.160769,0,0.0009882593294605,0.0009882593294605,0.0,0,0.0009882593294605
1778788392.859976,66045238,1,0.0009329917957074,0.0009932147804647,0.0010368665680289,-0.0027578040026128,-0.0022788974456489,-9.818527221679688,0,0,28.84926414489746,1,1,760,800,0.160769,0,0.0010368665680289,0.0010368665680289,0.0,0,0.0010368665680289
1778788392.89996,66085222,0,0.0009506189380772,0.0009200842468999,0.0009450056240893,-0.0013060559285804,-0.0013589905574917,-9.817142486572266,0,0,28.851417541503903,1,1,1000,1000,0.200753,0,0.0009450056240893,0.0009450056240893,0.0,0,0.0009450056240893
1778788392.89996,66085222,1,0.0008138224948197,0.0007899565971456,0.0011414034524932,-0.0016149844741448,0.0013261607382446,-9.817687034606934,0,0,28.851417541503903,1,1,760,800,0.200753,0,0.0011414034524932,0.0011414034524932,0.0,0,0.0011414034524932
1778788392.939944,66125206,0,0.0009534268756397,0.0008711374830454,0.0009960200404748,-0.0012131413677707,-0.0005248147645033,-9.815933227539062,0,0,28.85357093811035,1,1,1000,1000,0.240737,0,0.0009960200404748,0.0009960200404748,0.0,0,0.0009960200404748
1778788392.939944,66125206,1,0.0009881923906505,0.0008972200448624,0.0009129361133091,-0.0015896012773737,-0.0015985947102308,-9.816545486450195,0,0,28.85357093811035,1,1,760,800,0.240737,0,0.0009129361133091,0.0009129361133091,0.0,0,0.0009129361133091
1778788392.979928,66165190,0,0.0009639316704124,0.0009267668356187,0.0009012593072839,-0.0011784309754148,-0.0006320611573755,-9.818537712097168,0,0,28.855722427368164,1,1,1000,1000,0.280721,0,0.0009012593072839,0.0009012593072839,0.0,0,0.0009012593072839
1778788392.979928,66165190,1,0.0009535555727779,0.0010175076313316,0.0008520944975316,-0.00245051109232,0.0001168177477666,-9.818769454956056,0,0,28.855722427368164,1,1,760,800,0.280721,0,0.0008520944975316,0.0008520944975316,0.0,0,0.0008520944975316
1778788393.019912,66205174,0,0.0009478107676841,0.0009139704634435,0.0009750751778483,-0.0013058682670816,-0.0008680603932589,-9.817156791687012,0,0,28.85787582397461,1,1,1000,1000,0.320705,0,0.0009750751778483,0.0009750751778483,0.0,0,0.0009750751778483
1778788393.019912,66205174,1,0.0009507060749456,0.0009018906857818,0.0010126791894435,-0.0033680140040814,-0.001181298517622,-9.81830596923828,0,0,28.85787582397461,1,1,760,800,0.320705,0,0.0010126791894435,0.0010126791894435,0.0,0,0.0010126791894435
1778788393.059896,66245158,0,0.0009787618182599,0.0009303325787186,0.0010519882198423,-0.0004167663282714,-0.0016677195671945,-9.817419052124023,0,0,28.860027313232425,1,1,1000,1000,0.360689,0,0.0010519882198423,0.0010519882198423,0.0,0,0.0010519882198423
1778788393.059896,66245158,1,0.0008023427799344,0.0009332209010608,0.0009403708390891,-0.0015935651026666,0.0005652626277878,-9.816902160644531,0,0,28.860027313232425,1,1,760,800,0.360689,0,0.0009403708390891,0.0009403708390891,0.0,0,0.0009403708390891
1778788393.09988,66285142,0,0.00088471948402,0.0009634256130084,0.0009408122859895,-0.0014385922113433,-0.0001062134688254,-9.816558837890623,0,0,28.862178802490234,1,1,1000,1000,0.400673,0,0.0009408122859895,0.0009408122859895,0.0,0,0.0009408122859895
1778788393.09988,66285142,1,0.0010914475424215,0.0009933369001373,0.0010809572413563,-0.0030978638678789,-0.0005848276196047,-9.81755256652832,0,0,28.862178802490234,1,1,760,800,0.400673,0,0.0010809572413563,0.0010809572413563,0.0,0,0.0010809572413563
1778788393.139864,66325126,0,0.000905628199689,0.0009000000427477,0.0008128601475618,-0.0014011831954121,-0.0015229681739583,-9.817601203918455,0,0,28.864330291748047,1,1,1000,1000,0.440657,0,0.0008128601475618,0.0008128601475618,0.0,0,0.0008128601475618
1778788393.139864,66325126,1,0.0010906171519309,0.0008101051207631,0.0008106839377433,0.0016591346357017,-0.0017775299493223,-9.816271781921388,0,0,28.864330291748047,1,1,760,800,0.440657,0,0.0008106839377433,0.0008106839377433,0.0,0,0.0008106839377433
1778788393.179848,66365110,0,0.000883535540197,0.0008872554753907,0.0009099476155824,-0.000551339238882,-0.000261766166659,-9.81654930114746,0,0,28.86648368835449,1,1,1000,1000,0.480641,0,0.0009099476155824,0.0009099476155824,0.0,0,0.0009099476155824
1778788393.179848,66365110,1,0.0009534019627608,0.0009749071905389,0.0008467442239634,-0.0006350363837555,-0.0008226592908613,-9.817354202270508,0,0,28.86648368835449,1,1,760,800,0.480641,0,0.0008467442239634,0.0008467442239634,0.0,0,0.0008467442239634
1778788393.219832,66405094,0,0.0009491480304859,0.0010065134847536,0.0009356657974421,-0.0006175275775603,-0.0008061905391514,-9.817715644836426,0,0,28.868633270263672,1,1,1000,1000,0.520625,0,0.0009356657974421,0.0009356657974421,0.0,0,0.0009356657974421
1778788393.219832,66405094,1,0.0008142571896314,0.0007636658847332,0.0010091122239828,-0.0015991239342838,0.0006851347861811,-9.814387321472168,0,0,28.868633270263672,1,1,760,800,0.520625,0,0.0010091122239828,0.0010091122239828,0.0,0,0.0010091122239828
1778788393.259816,66445078,0,0.0009508485090918,0.000882722553797,0.0009436403634026,-3.12807533191517e-05,-0.0010512709850445,-9.818345069885254,0,0,28.870784759521484,1,1,1000,1000,0.560609,0,0.0009436403634026,0.0009436403634026,0.0,0,0.0009436403634026
1778788393.259816,66445078,1,0.0008183298632502,0.0008231917163357,0.0009193237056024,-0.0005747891846112,-0.000845962902531,-9.815350532531738,0,0,28.870784759521484,1,1,760,800,0.560609,0,0.0009193237056024,0.0009193237056024,0.0,0,0.0009193237056024
1778788393.2998,66485062,0,0.000912529125344,0.0009056649287231,0.0009492113022133,-0.0009770215256139,-0.0006531288963742,-9.81699275970459,0,0,28.872987747192383,1,1,1000,1000,0.600593,0,0.0009492113022133,0.0009492113022133,0.0,0,0.0009492113022133
1778788393.2998,66485062,1,0.0006661154329776,0.0009688562131486,0.0008972476935014,3.4913438867079094e-05,-0.0004479036433622,-9.818365097045898,0,0,28.872987747192383,1,1,760,800,0.600593,0,0.0008972476935014,0.0008972476935014,0.0,0,0.0008972476935014
1778788393.339784,66525046,0,0.0009785547154024,0.0009098877198994,0.0008960721315816,-0.0005659472080878,-0.0015733189648017,-9.817121505737305,0,0,28.875139236450195,1,1,1000,1000,0.640577,0,0.0008960721315816,0.0008960721315816,0.0,0,0.0008960721315816
1778788393.339784,66525046,1,0.0009916748385876,0.0008580637513659,0.001068724785,6.441034201998264e-05,-0.0012881818693131,-9.818275451660156,0,0,28.875139236450195,1,1,760,800,0.640577,0,0.001068724785,0.001068724785,0.0,0,0.001068724785
1778788393.379768,66565030,0,0.0009319140808656,0.0009405807359144,0.0009151807171292,0.000196408611373,-0.001165613066405,-9.817218780517578,0,0,28.87728881835937,1,1,1000,1000,0.680561,0,0.0009151807171292,0.0009151807171292,0.0,0,0.0009151807171292
1778788393.379768,66565030,1,0.0008884265553206,0.0010168923763558,0.0011680799070745,-0.0016083114314824,0.000970610009972,-9.818058013916016,0,0,28.87728881835937,1,1,760,800,0.680561,0,0.0011680799070745,0.0011680799070745,0.0,0,0.0011680799070745
1778788393.419752,66605014,0,0.0009501859312877,0.0009244327666237,0.0008819184731692,-0.0002589685609564,-0.0010759542929008,-9.818424224853516,0,0,28.87943649291992,1,1,1000,1000,0.720545,0,0.0008819184731692,0.0008819184731692,0.0,0,0.0008819184731692
1778788393.419752,66605014,1,0.0007616015500389,0.0009361011907458,0.0009563932544551,-0.0003856547409668,-0.0014127603499218,-9.817416191101074,0,0,28.87943649291992,1,1,760,800,0.720545,0,0.0009563932544551,0.0009563932544551,0.0,0,0.0009563932544551
1778788393.459736,66644998,0,0.0009465184994041,0.0009965633507817,0.0008924081921577,-0.0011425246484577,-0.0015360105317085,-9.817577362060549,0,0,28.881532669067383,1,1,1000,1000,0.760529,0,0.0008924081921577,0.0008924081921577,0.0,0,0.0008924081921577
1778788393.459736,66644998,1,0.0012559134047478,0.0007190404576249,0.0007173593621701,-0.0012371523771435,-0.0014183514285832,-9.817126274108888,0,0,28.881532669067383,1,1,760,800,0.760529,0,0.0007173593621701,0.0007173593621701,0.0,0,0.0007173593621701
1778788393.49972,66684982,0,0.0010021803900599,0.0009646328981034,0.000946216052398,-0.0015286525012925,-0.000965047860518,-9.817876815795898,0,0,28.88368225097656,1,1,1000,1000,0.800513,0,0.000946216052398,0.000946216052398,0.0,0,0.000946216052398
1778788393.49972,66684982,1,0.0008705832296982,0.0009280127123929,0.0009019462158903,0.0012357549276202,-0.0010219251271337,-9.815160751342772,0,0,28.88368225097656,1,1,760,800,0.800513,0,0.0009019462158903,0.0009019462158903,0.0,0,0.0009019462158903
1778788393.539704,66724966,0,0.0009176700259558,0.0009695190819911,0.0010210340842604,-0.0007830667309463,-0.0004596315848175,-9.818058967590332,0,0,28.885831832885746,1,1,1000,1000,0.840497,0,0.0010210340842604,0.0010210340842604,0.0,0,0.0010210340842604
1778788393.539704,66724966,1,0.0007803358021192,0.0010218089446425,0.0010367173235863,-0.0007700191927142,-0.0018237081822007,-9.817182540893556,0,0,28.885831832885746,1,1,760,800,0.840497,0,0.0010367173235863,0.0010367173235863,0.0,0,0.0010367173235863
1778788393.579688,66764950,0,0.0009399751434102,0.0009353413479402,0.0008956937817856,-0.001417901716195,-0.0007240554550662,-9.81602382659912,0,0,28.88797950744629,1,1,1000,1000,0.880481,0,0.0008956937817856,0.0008956937817856,0.0,0,0.0008956937817856
1778788393.579688,66764950,1,0.0009965777862817,0.0011287180241197,0.0010462952777743,-0.0028758090920746,0.0003561910707503,-9.817098617553713,0,0,28.88797950744629,1,1,760,800,0.880481,0,0.0010462952777743,0.0010462952777743,0.0,0,0.0010462952777743
1778788393.619672,66804934,0,0.0009140638867393,0.000938608078286,0.0009296868811361,-0.0004782197938766,-0.0018272246234118,-9.817831993103027,0,0,28.89012908935547,1,1,1000,1000,0.920465,0,0.0009296868811361,0.0009296868811361,0.0,0,0.0009296868811361
1778788393.619672,66804934,1,0.0006454755202867,0.0009836400859057,0.0007417576853185,-0.0033364247065037,0.0010261631105095,-9.817713737487791,0,0,28.89012908935547,1,1,760,800,0.920465,0,0.0007417576853185,0.0007417576853185,0.0,0,0.0007417576853185
1778788393.659656,66844918,0,0.0009095837594941,0.0009106122888624,0.0009376744274049,-0.0024754451587796,0.0006565756630152,-9.817955017089844,0,0,28.892274856567383,1,1,1000,1000,0.960449,0,0.0009376744274049,0.0009376744274049,0.0,0,0.0009376744274049
1778788393.659656,66844918,1,0.0008235006825998,0.0009719745721668,0.0010342311579734,4.0272745536640286e-05,-0.0015962501056492,-9.818073272705078,0,0,28.892274856567383,1,1,760,800,0.960449,0,0.0010342311579734,0.0010342311579734,0.0,0,0.0010342311579734
1778788393.69964,66884902,0,0.0009651705040596,0.0009518906008452,0.0009635955793783,-4.450291089597158e-05,-0.0006729648448526,-9.817899703979492,0,0,28.89442253112793,1,1,1000,1000,1.000433,0,0.0009635955793783,0.0009635955793783,0.0,0,0.0009635955793783
1778788393.69964,66884902,1,0.0009989789687097,0.0009000410209409,0.0008909096941351,-0.0019492597784847,0.0016652591293677,-9.81690788269043,0,0,28.89442253112793,1,1,760,800,1.000433,0,0.0008909096941351,0.0008909096941351,0.0,0,0.0008909096941351
1778788393.739624,66924886,0,0.0009629229898564,0.0009420206188224,0.0009376381640322,-0.0005058254464529,-0.0006996119045652,-9.81833267211914,0,0,28.89657020568848,1,1,1000,1000,1.040417,0,0.0009376381640322,0.0009376381640322,0.0,0,0.0009376381640322
1778788393.739624,66924886,1,0.0008806020487099,0.000920066551771,0.0012715234188362,-0.0002260339970234,-0.0015790265752002,-9.817026138305664,0,0,28.89657020568848,1,1,760,800,1.040417,0,0.0012715234188362,0.0012715234188362,0.0,0,0.0012715234188362
1778788393.779608,66964870,0,0.000915459357202,0.0010373889235779,0.0010095783509314,-0.0013586585409939,-0.0005635344423353,-9.817697525024414,0,0,28.898717880249023,1,1,1000,1000,1.080401,0,0.0010095783509314,0.0010095783509314,0.0,0,0.0010095783509314
1778788393.779608,66964870,1,0.0010178786469623,0.0011258545564487,0.0009810645133256,-0.0021927270572632,-0.002808476332575,-9.818357467651367,0,0,28.898717880249023,1,1,760,800,1.080401,0,0.0009810645133256,0.0009810645133256,0.0,0,0.0009810645133256
1778788393.819592,67004854,0,0.0009466471383348,0.000932125840336,0.0009265856351703,-0.0006558537133969,-0.0015791638288646,-9.817688941955566,0,0,28.900863647460938,1,1,1000,1000,1.120385,0,0.0009265856351703,0.0009265856351703,0.0,0,0.0009265856351703
1778788393.819592,67004854,1,0.0009817089885473,0.0009470585500821,0.0010763166937977,-0.0021636714227497,8.102868014248088e-05,-9.820436477661133,0,0,28.900863647460938,1,1,760,800,1.120385,0,0.0010763166937977,0.0010763166937977,0.0,0,0.0010763166937977
1778788393.859576,67044838,0,0.0009288624278269,0.0008865309646353,0.0008892764453776,-0.0012793946079909,-0.0006310502067208,-9.817508697509766,0,0,28.903011322021484,1,1,1000,1000,1.160369,0,0.0008892764453776,0.0008892764453776,0.0,0,0.0008892764453776
1778788393.859576,67044838,1,0.000982636003755,0.0008993277442641,0.0007880374323576,-0.0006689806468784,0.0003307482111267,-9.817819595336914,0,0,28.903011322021484,1,1,760,800,1.160369,0,0.0007880374323576,0.0007880374323576,0.0,0,0.0007880374323576
1778788393.89956,67084822,0,0.0010032295249402,0.0009577412856742,0.0009527302463538,-0.0008378927013836,-0.0004230246413499,-9.816598892211914,0,0,28.9051570892334,1,1,1000,1000,1.200353,0,0.0009527302463538,0.0009527302463538,0.0,0,0.0009527302463538
1778788393.89956,67084822,1,0.0010209473548457,0.0009850905044004,0.0009404266602359,-0.0018850117921829,0.0020075386855751,-9.82085418701172,0,0,28.9051570892334,1,1,760,800,1.200353,0,0.0009404266602359,0.0009404266602359,0.0,0,0.0009404266602359
1778788393.939544,67124806,0,0.0008934732759371,0.0009055108530446,0.0009854182135313,-0.0009964350610971,-0.0018674619495868,-9.817224502563477,0,0,28.907302856445312,1,1,1000,1000,1.240337,0,0.0009854182135313,0.0009854182135313,0.0,0,0.0009854182135313
1778788393.939544,67124806,1,0.0008899908862076,0.0009418818517588,0.0009760526008903,-0.0011917003430426,-0.0022069283295422,-9.818206787109377,0,0,28.907302856445312,1,1,760,800,1.240337,0,0.0009760526008903,0.0009760526008903,0.0,0,0.0009760526008903
1778788393.979528,67164790,0,0.0009952877881005,0.0008775033056735,0.0009421503054909,-0.0011617811396718,-0.0016743299784138,-9.817777633666992,0,0,28.909448623657227,1,1,1000,1000,1.280321,0,0.0009421503054909,0.0009421503054909,0.0,0,0.0009421503054909
1778788393.979528,67164790,1,0.0009931511012837,0.0007482950459234,0.0008453152840957,-0.0015113513218238,-0.0008362667285837,-9.817069053649902,0,0,28.909448623657227,1,1,760,800,1.280321,0,0.0008453152840957,0.0008453152840957,0.0,0,0.0008453152840957
1778788394.019512,67204774,0,0.0009216120815835,0.0009751913603395,0.0008992388029582,-0.0009979857131838,-0.0011461593676358,-9.81743049621582,0,0,28.911592483520508,1,1,1000,1000,1.320305,0,0.0008992388029582,0.0008992388029582,0.0,0,0.0008992388029582
1778788394.019512,67204774,1,0.0009002939914353,0.000841275032144,0.0009241751395165,9.164262155536562e-05,-2.626444438647013e-05,-9.817496299743652,0,0,28.911592483520508,1,1,760,800,1.320305,0,0.0009241751395165,0.0009241751395165,0.0,0,0.0009241751395165
1778788394.059496,67244758,0,0.0009874624665826,0.0010009853867813,0.0009537970181554,-0.0016429277602583,-0.000912791583687,-9.81736183166504,0,0,28.913738250732425,1,1,1000,1000,1.360289,0,0.0009537970181554,0.0009537970181554,0.0,0,0.0009537970181554
1778788394.059496,67244758,1,0.0009922333993017,0.0008868582081049,0.0011077738599851,0.0007828420493751,-0.0013576264027506,-9.819534301757812,0,0,28.913738250732425,1,1,760,800,1.360289,0,0.0011077738599851,0.0011077738599851,0.0,0,0.0011077738599851
1778788394.09948,67284742,0,0.000894439057447,0.0008930424810387,0.0009526497451588,-0.0012351090554147,-0.0009128575911745,-9.817937850952148,0,0,28.915884017944336,1,1,1000,1000,1.400273,0,0.0009526497451588,0.0009526497451588,0.0,0,0.0009526497451588
1778788394.09948,67284742,1,0.0008073718636296,0.000903858046513,0.001081497175619,0.0001446574751753,-0.0017434454057365,-9.816645622253418,0,0,28.915884017944336,1,1,760,800,1.400273,0,0.001081497175619,0.001081497175619,0.0,0,0.001081497175619
1778788394.139464,67324726,0,0.0010198093950748,0.0009673918248154,0.0010071780998259,-0.0027189513202756,-0.0009926605271175,-9.817249298095703,0,0,28.918027877807617,1,1,1000,1000,1.440257,0,0.0010071780998259,0.0010071780998259,0.0,0,0.0010071780998259
1778788394.139464,67324726,1,0.0009416079265065,0.0008534101070836,0.000832738878671,-0.0016755061224102,-0.0003792473289649,-9.819204330444336,0,0,28.918027877807617,1,1,760,800,1.440257,0,0.000832738878671,0.000832738878671,0.0,0,0.000832738878671
1778788394.179448,67364710,0,0.0008856125641614,0.000936011376325,0.0009419280104339,-0.0011608072090893,-0.0008132011862471,-9.817703247070312,0,0,28.9201717376709,1,1,1000,1000,1.480241,0,0.0009419280104339,0.0009419280104339,0.0,0,0.0009419280104339
1778788394.179448,67364710,1,0.0007967214332893,0.0009611407294869,0.0005754663143306,-0.0017719225725159,-0.0006328790914267,-9.817445755004885,0,0,28.9201717376709,1,1,760,800,1.480241,0,0.0005754663143306,0.0005754663143306,0.0,0,0.0005754663143306
1778788394.219432,67404694,0,0.0008975701057352,0.0010198808740824,0.0009215821046382,-0.0023466490674763,-0.000486592965899,-9.817612648010254,0,0,28.92231559753418,1,1,1000,1000,1.520225,0,0.0009215821046382,0.0009215821046382,0.0,0,0.0009215821046382
1778788394.219432,67404694,1,0.0012398104881867,0.0010239498224109,0.0008241612231358,0.0002783810778055,-7.391804683720693e-05,-9.817718505859377,0,0,28.92231559753418,1,1,760,800,1.520225,0,0.0008241612231358,0.0008241612231358,0.0,0,0.0008241612231358
1778788394.259416,67444678,0,0.0009050165535882,0.0009181685745716,0.0009083253098651,-0.0006237734341993,-0.0012717514764517,-9.816765785217283,0,0,28.92445945739746,1,1,1000,1000,1.560209,0,0.0009083253098651,0.0009083253098651,0.0,0,0.0009083253098651
1778788394.259416,67444678,1,0.0010839842725545,0.000972332432866,0.0008615349652245,-0.0009785724105313,0.0003619063063524,-9.81776237487793,0,0,28.92445945739746,1,1,760,800,1.560209,0,0.0008615349652245,0.0008615349652245,0.0,0,0.0008615349652245
1778788394.2994,67484662,0,0.0009014050010591,0.0009801629930734,0.0010010334663093,-0.0018577170558273,-0.0018003284931182,-9.81712532043457,0,0,28.926603317260746,1,1,1000,1000,1.600193,0,0.0010010334663093,0.0010010334663093,0.0,0,0.0010010334663093
1778788394.2994,67484662,1,0.0007806584471836,0.0009041191660799,0.0008792737498879,-0.0016646762378513,-0.0007756106788292,-9.816913604736328,0,0,28.926603317260746,1,1,760,800,1.600193,0,0.0008792737498879,0.0008792737498879,0.0,0,0.0008792737498879
1778788394.339384,67524646,0,0.0009824966546148,0.0008865321287885,0.0009953054832294,-0.0009269305737689,-0.0016760877333581,-9.818437576293944,0,0,28.92874526977539,1,1,1000,1000,1.640177,0,0.0009953054832294,0.0009953054832294,0.0,0,0.0009953054832294
1778788394.339384,67524646,1,0.0010076877661049,0.0008798227645456,0.0008581163128837,-0.0011011755559593,-0.0014580845599994,-9.816446304321287,0,0,28.92874526977539,1,1,760,800,1.640177,0,0.0008581163128837,0.0008581163128837,0.0,0,0.0008581163128837
1778788394.379368,67564630,0,0.0009357693488709,0.0009913961403071,0.0009835097007453,-0.0011219900334253,-0.0018108789809048,-9.818115234375,0,0,28.930889129638672,1,1,1000,1000,1.680161,0,0.0009835097007453,0.0009835097007453,0.0,0,0.0009835097007453
1778788394.379368,67564630,1,0.000902593426872,0.0007596928626298,0.0009208731935359,0.0007794214761815,-0.0021130077075213,-9.818466186523438,0,0,28.930889129638672,1,1,760,800,1.680161,0,0.0009208731935359,0.0009208731935359,0.0,0,0.0009208731935359
1778788394.419352,67604614,0,0.0009166483068838,0.0009485977352596,0.0009021442383527,-0.0008276987937279,-0.0006107742665335,-9.817627906799316,0,0,28.93303108215332,1,1,1000,1000,1.720145,0,0.0009021442383527,0.0009021442383527,0.0,0,0.0009021442383527
1778788394.419352,67604614,1,0.001037768786773,0.0010088784620165,0.0008246373035944,-0.0006912911194376,0.0003420715802349,-9.816523551940918,0,0,28.93303108215332,1,1,760,800,1.720145,0,0.0008246373035944,0.0008246373035944,0.0,0,0.0008246373035944
1778788394.459336,67644598,0,0.0009027713676914,0.0009547136141918,0.0010305726900696,-0.0006893551908433,-0.0003297764924354,-9.817585945129396,0,0,28.93517303466797,1,1,1000,1000,1.760129,0,0.0010305726900696,0.0010305726900696,0.0,0,0.0010305726900696
1778788394.459336,67644598,1,0.0009392880601808,0.0009698658832348,0.0008040057728067,-0.0010762579040601,-0.0031541064381599,-9.817667961120604,0,0,28.93517303466797,1,1,760,800,1.760129,0,0.0008040057728067,0.0008040057728067,0.0,0,0.0008040057728067
1778788394.49932,67684582,0,0.0009115921566262,0.0009648511186242,0.0009913659887388,-0.0011939678806811,-0.0004981684614904,-9.81659698486328,0,0,28.937314987182617,1,1,1000,1000,1.800113,0,0.0009913659887388,0.0009913659887388,0.0,0,0.0009913659887388
1778788394.49932,67684582,1,0.0010193703928962,0.001104142749682,0.0007981302333064,-0.0007552207680419,-0.0008310021366924,-9.818886756896973,0,0,28.937314987182617,1,1,760,800,1.800113,0,0.0007981302333064,0.0007981302333064,0.0,0,0.0007981302333064
1778788394.539304,67724566,0,0.000922734150663,0.0009820153936743,0.0008515822701156,-3.470766023383476e-05,-0.0009805681183934,-9.817748069763184,0,0,28.93945503234864,1,1,1000,1000,1.840097,0,0.0008515822701156,0.0008515822701156,0.0,0,0.0008515822701156
1778788394.539304,67724566,1,0.0009063277393579,0.0010025987867265,0.001195921562612,-0.0019106609979644,-0.0003161475178785,-9.819722175598145,0,0,28.93945503234864,1,1,760,800,1.840097,0,0.001195921562612,0.001195921562612,0.0,0,0.001195921562612
1778788394.579288,67764550,0,0.0010046474635601,0.0009037836571224,0.0009262035018764,-0.0005991818616166,-0.0021394125651568,-9.81761646270752,0,0,28.94159698486328,1,1,1000,1000,1.880081,0,0.0009262035018764,0.0009262035018764,0.0,0,0.0009262035018764
1778788394.579288,67764550,1,0.0011509511386975,0.0009768286254256,0.0008555398671887,-0.0023624741006642,-0.0019039430189877,-9.815343856811523,0,0,28.94159698486328,1,1,760,800,1.880081,0,0.0008555398671887,0.0008555398671887,0.0,0,0.0008555398671887
1778788394.619272,67804534,0,0.0009473656537011,0.0009348219609819,0.0009338656091131,-0.0009542775806039,-0.0001729094510665,-9.81767463684082,0,0,28.943737030029297,1,1,1000,1000,1.920065,0,0.0009338656091131,0.0009338656091131,0.0,0,0.0009338656091131
1778788394.619272,67804534,1,0.0012046642368659,0.000857452279888,0.0009906878694891,-0.0009709587320685,0.000179268346983,-9.820109367370604,0,0,28.943737030029297,1,1,760,800,1.920065,0,0.0009906878694891,0.0009906878694891,0.0,0,0.0009906878694891
1778788394.659256,67844518,0,0.0009592319838702,0.0009522230830043,0.0010182140395045,-0.0006902500172145,-0.0016061931382864,-9.817742347717283,0,0,28.945878982543945,1,1,1000,1000,1.960049,0,0.0010182140395045,0.0010182140395045,0.0,0,0.0010182140395045
1778788394.659256,67844518,1,0.0010237151291221,0.0010422349441796,0.0010020134504884,-0.0021040625870227,-0.0029073795303702,-9.816306114196776,0,0,28.945878982543945,1,1,760,800,1.960049,0,0.0010020134504884,0.0010020134504884,0.0,0,0.0010020134504884
1778788394.69924,67884502,0,0.0009234260069206,0.0009733196930028,0.0009308453882113,-0.0005401216913014,-0.000605130684562,-9.817185401916504,0,0,28.94801902770996,1,1,1000,1000,2.000033,0,0.0009308453882113,0.0009308453882113,0.0,0,0.0009308453882113
1778788394.69924,67884502,1,0.000934561190661,0.0009736491483636,0.000888587848749,-0.0013181453105062,-0.0020240508019924,-9.815282821655272,0,0,28.94801902770996,1,1,760,800,2.000033,0,0.000888587848749,0.000888587848749,0.0,0,0.000888587848749
1778788394.739224,67924486,0,0.0009882870363071,0.0009600030025467,0.0009483049507252,-0.001019072253257,-0.0016084357630461,-9.816383361816406,0,0,28.950159072875977,1,1,1000,1000,2.040017,0,0.0009483049507252,0.0009483049507252,0.0,0,0.0009483049507252
1778788394.739224,67924486,1,0.0010957956546917,0.0010396051220595,0.00120663898997,-0.0033120447769761,0.0010991487652063,-9.818302154541016,0,0,28.950159072875977,1,1,760,800,2.040017,0,0.00120663898997,0.00120663898997,0.0,0,0.00120663898997
1778788394.779208,67964470,0,0.0009483940666541,0.0008974568918347,0.0009283902472816,-0.0001921593211591,-0.0005688828532584,-9.818248748779297,0,0,28.952299118041992,1,1,1000,1000,2.080001,0,0.0009283902472816,0.0009283902472816,0.0,0,0.0009283902472816
1778788394.779208,67964470,1,0.0011956522939726,0.0008672543917782,0.0009393537184223,0.0009635497117415,0.0013369908556342,-9.817110061645508,0,0,28.952299118041992,1,1,760,800,2.080001,0,0.0009393537184223,0.0009393537184223,0.0,0,0.0009393537184223
1778788394.8200247,68005287,0,0.0009715293417684,0.0009296322241425,0.0009784456342458,-0.0011655406560748,-0.0005457959487102,-9.817564964294434,0,0,28.954490661621094,1,1,1000,1000,2.120818,0,0.0009784456342458,0.0009784456342458,0.0,0,0.0009784456342458
1778788394.8200247,68005287,1,0.0008238839218392,0.0009006777545437,0.0008767810650169,-0.0035645435564219,-0.0023956415243446,-9.818473815917969,0,0,28.954439163208008,1,1,760,800,2.120818,0,0.0008767810650169,0.0008767810650169,0.0,0,0.0008767810650169
1778788394.8600087,68045271,0,0.0009610098786652,0.0009418274275958,0.0009505270863883,-0.0007023471989668,-0.001116391737014,-9.817209243774414,0,0,28.95663070678711,1,1,1000,1000,2.160802,0,0.0009505270863883,0.0009505270863883,0.0,0,0.0009505270863883
1778788394.8600087,68045271,1,0.0008789738640189,0.0010388026712462,0.0009110703831538,0.0001424972142558,-0.000762824434787,-9.815670013427734,0,0,28.95657730102539,1,1,760,800,2.160802,0,0.0009110703831538,0.0009110703831538,0.0,0,0.0009110703831538
1778788394.8999927,68085255,0,0.0009556295699439,0.000843854388222,0.0009711541933938,-0.0012794759823009,-0.0016802665777504,-9.818389892578123,0,0,28.958770751953125,1,1,1000,1000,2.200786,0,0.0009711541933938,0.0009711541933938,0.0,0,0.0009711541933938
1778788394.8999927,68085255,1,0.0009153066785074,0.0010018670000135,0.0007300513680092,-0.0026814555749297,-0.0004271975194569,-9.819998741149902,0,0,28.958717346191406,1,1,760,800,2.200786,0,0.0007300513680092,0.0007300513680092,0.0,0,0.0007300513680092
1778788394.9399767,68125239,0,0.0010510084684938,0.0009634508169256,0.000975729082711,-0.0010605104034766,0.0003108634264208,-9.8172025680542,0,0,28.960908889770508,1,1,1000,1000,2.24077,0,0.000975729082711,0.000975729082711,0.0,0,0.000975729082711
1778788394.9399767,68125239,1,0.0011108246399089,0.0007928375271148,0.00095059373416,0.0020312252454459,0.0001787807414075,-9.816957473754885,0,0,28.96085548400879,1,1,760,800,2.24077,0,0.00095059373416,0.00095059373416,0.0,0,0.00095059373416
1778788394.979961,68165223,0,0.0010065584210678,0.0009807131718844,0.0009540608734823,-0.0017173690721392,-0.0008136335527524,-9.816817283630373,0,0,28.96299362182617,1,1,1000,1000,2.280754,0,0.0009540608734823,0.0009540608734823,0.0,0,0.0009540608734823
1778788394.979961,68165223,1,0.0008913691272027,0.000823134148959,0.0012800073018297,-0.002434630645439,-0.0018633239669725,-9.815881729125977,0,0,28.96299362182617,1,1,760,800,2.280754,0,0.0012800073018297,0.0012800073018297,0.0,0,0.0012800073018297
1778788395.0199451,68205207,0,0.0009648608393035,0.0008970886701717,0.0009566923836246,-0.0004203514545224,-0.0012191690038889,-9.818320274353027,0,0,28.965131759643555,1,1,1000,1000,2.320738,0,0.0009566923836246,0.0009566923836246,0.0,0,0.0009566923836246
1778788395.0199451,68205207,1,0.0008049934986047,0.0008832388557493,0.0012699683429673,-0.0053208251483738,-0.0027646776288747,-9.81991195678711,0,0,28.965131759643555,1,1,760,800,2.320738,0,0.0012699683429673,0.0012699683429673,0.0,0,0.0012699683429673
1778788395.0599291,68245191,0,0.0010167440632358,0.0009288904839195,0.0009430883219465,-0.0005566106410697,-0.0017835107864812,-9.81635856628418,0,0,28.967269897460938,1,1,1000,1000,2.360722,0,0.0009430883219465,0.0009430883219465,0.0,0,0.0009430883219465
1778788395.0599291,68245191,1,0.0010713479714468,0.0009125382057391,0.0009646255057305,-0.0006270866142585,-0.0009066059719771,-9.816941261291504,0,0,28.967269897460938,1,1,760,800,2.360722,0,0.0009646255057305,0.0009646255057305,0.0,0,0.0009646255057305
1778788395.0999131,68285175,0,0.00092695269268,0.00102785078343,0.0009967188816517,0.000140477248351,-0.0010759477736428,-9.817687034606934,0,0,28.969406127929688,1,1,1000,1000,2.400706,0,0.0009967188816517,0.0009967188816517,0.0,0,0.0009967188816517
1778788395.0999131,68285175,1,0.0008026814321056,0.0008571604266762,0.0009747815784066,-0.0033684072550386,-0.0020932920742779,-9.815813064575195,0,0,28.969406127929688,1,1,760,800,2.400706,0,0.0009747815784066,0.0009747815784066,0.0,0,0.0009747815784066
1778788395.139897,68325159,0,0.0009292520699091,0.0009313445189036,0.0010488132247701,-0.0007470836280845,-0.0008420448866672,-9.817700386047363,0,0,28.97154426574707,1,1,1000,1000,2.44069,0,0.0010488132247701,0.0010488132247701,0.0,0,0.0010488132247701
1778788395.139897,68325159,1,0.0009966825600713,0.0010021745692938,0.000929417903535,0.0023398036137223,-0.0006484386976808,-9.817811012268066,0,0,28.97154426574707,1,1,760,800,2.44069,0,0.000929417903535,0.000929417903535,0.0,0,0.000929417903535
1778788395.179881,68365143,0,0.0009796759113669,0.0009631673456169,0.0009061958407983,-0.001397579559125,-0.0001307606289628,-9.81652545928955,0,0,28.973682403564453,1,1,1000,1000,2.480674,0,0.0009061958407983,0.0009061958407983,0.0,0,0.0009061958407983
1778788395.179881,68365143,1,0.0007794360863044,0.0009074136032722,0.0010663364082574,-0.0005431720637716,-0.0006474463152699,-9.815536499023438,0,0,28.973682403564453,1,1,760,800,2.480674,0,0.0010663364082574,0.0010663364082574,0.0,0,0.0010663364082574
1778788395.219865,68405127,0,0.0009919030126184,0.0009314038325101,0.0009932953398674,-0.000233312981436,-0.0005399534711614,-9.817441940307615,0,0,28.975818634033203,1,1,1000,1000,2.520658,0,0.0009932953398674,0.0009932953398674,0.0,0,0.0009932953398674
1778788395.219865,68405127,1,0.0009297165670432,0.0009519566665403,0.001463790773414,-0.002718981122598,-0.0018506936030462,-9.817462921142578,0,0,28.975818634033203,1,1,760,800,2.520658,0,0.001463790773414,0.001463790773414,0.0,0,0.001463790773414
1778788395.259849,68445111,0,0.0009382917196489,0.0009764829301275,0.000932399125304,-0.0007896761526353,-0.0020165788009762,-9.81672477722168,0,0,28.97795486450196,1,1,1000,1000,2.560642,0,0.000932399125304,0.000932399125304,0.0,0,0.000932399125304
1778788395.259849,68445111,1,0.0012025635223835,0.0008314242586493,0.0006661394727416,0.0005855793133378,-0.0010608459124341,-9.81966781616211,0,0,28.97795486450196,1,1,760,800,2.560642,0,0.0006661394727416,0.0006661394727416,0.0,0,0.0006661394727416
1778788395.299833,68485095,0,0.000930581940338,0.0010174931958317,0.0010384890483692,-0.0001731978991301,-0.0001881878997664,-9.816143989562988,0,0,28.980091094970703,1,1,1000,1000,2.600626,0,0.0010384890483692,0.0010384890483692,0.0,0,0.0010384890483692
1778788395.299833,68485095,1,0.0009064607438631,0.0011632335372269,0.0009011820657178,-0.0022340668365359,-0.0003524239582475,-9.816535949707031,0,0,28.980091094970703,1,1,760,800,2.600626,0,0.0009011820657178,0.0009011820657178,0.0,0,0.0009011820657178
1778788395.339817,68525079,0,0.0009194340091198,0.0009522274485789,0.0009437653352506,-0.0016205727588385,-0.0017704839119687,-9.817145347595217,0,0,28.982227325439453,1,1,1000,1000,2.64061,0,0.0009437653352506,0.0009437653352506,0.0,0,0.0009437653352506
1778788395.339817,68525079,1,0.0009367497987113,0.0008334041340276,0.0006718640797771,-0.0006455967668443,-0.0003532338887453,-9.816749572753906,0,0,28.982227325439453,1,1,760,800,2.64061,0,0.0006718640797771,0.0006718640797771,0.0,0,0.0006718640797771
1778788395.379801,68565063,0,0.0009470269433222,0.0009749979944899,0.0009961473988369,-0.0004573655314743,-0.0009392548818141,-9.816435813903809,0,0,28.98441505432129,1,1,1000,1000,2.680594,0,0.0009961473988369,0.0009961473988369,0.0,0,0.0009961473988369
1778788395.379801,68565063,1,0.0008194468682631,0.0010734960669651,0.0009572549024596,-9.91950510069728e-05,-0.0017255623824894,-9.81566047668457,0,0,28.98441505432129,1,1,760,800,2.680594,0,0.0009572549024596,0.0009572549024596,0.0,0,0.0009572549024596
1778788395.419785,68605047,0,0.000993030029349,0.0009868761990219,0.0010131988674402,-0.0009371495107188,-0.0001858039322542,-9.818270683288574,0,0,28.98655128479004,1,1,1000,1000,2.720578,0,0.0010131988674402,0.0010131988674402,0.0,0,0.0010131988674402
1778788395.419785,68605047,1,0.0010062652872875,0.0009530907846055,0.0008642655448056,0.0004794232954736,-0.0038584652356803,-9.816730499267578,0,0,28.98655128479004,1,1,760,800,2.720578,0,0.0008642655448056,0.0008642655448056,0.0,0,0.0008642655448056
1778788395.459769,68645031,0,0.0009596855961717,0.0009659465285949,0.0010031127603724,-0.0012722352985292,-0.0012616517487913,-9.817062377929688,0,0,28.98868560791016,1,1,1000,1000,2.760562,0,0.0010031127603724,0.0010031127603724,0.0,0,0.0010031127603724
1778788395.459769,68645031,1,0.0009536055731587,0.0009803348220884,0.000956906878855,-0.0025916525628417,-0.0016436040168628,-9.81422996520996,0,0,28.98868560791016,1,1,760,800,2.760562,0,0.000956906878855,0.000956906878855,0.0,0,0.000956906878855
1778788395.499753,68685015,0,0.0010097997728735,0.0010691010393202,0.0009662546217441,-0.0012857711408287,-0.0006662564119324,-9.817819595336914,0,0,28.99081993103028,1,1,1000,1000,2.800546,0,0.0009662546217441,0.0009662546217441,0.0,0,0.0009662546217441
1778788395.499753,68685015,1,0.0010727586923167,0.000758464098908,0.0009496592683717,-0.0023427810519933,-0.0028786677867174,-9.819697380065918,0,0,28.99081993103028,1,1,760,800,2.800546,0,0.0009496592683717,0.0009496592683717,0.0,0,0.0009496592683717
1778788395.5397367,68724999,0,0.0009577472810633,0.0009494349360466,0.0009531796677038,-0.0005033835768699,0.0002436961513012,-9.817218780517578,0,0,28.992902755737305,1,1,1000,1000,2.84053,0,0.0009531796677038,0.0009531796677038,0.0,0,0.0009531796677038
1778788395.5397367,68724999,1,0.0010743647580966,0.0008772140135988,0.0010284828022122,-0.0005110030760988,-0.0024948283098638,-9.817758560180664,0,0,28.992902755737305,1,1,760,800,2.84053,0,0.0010284828022122,0.0010284828022122,0.0,0,0.0010284828022122
1778788395.5797207,68764983,0,0.0009569289395585,0.0009953496046364,0.0009441924048587,-0.0012577173765748,-0.0018117001745849,-9.817431449890137,0,0,28.99503517150879,1,1,1000,1000,2.880514,0,0.0009441924048587,0.0009441924048587,0.0,0,0.0009441924048587
1778788395.5797207,68764983,1,0.0011365601094439,0.0010216591181233,0.0011780626373365,-0.0023969002068042,0.0003037875285372,-9.818315505981444,0,0,28.99503517150879,1,1,760,800,2.880514,0,0.0011780626373365,0.0011780626373365,0.0,0,0.0011780626373365
1778788395.6197047,68804967,0,0.0009473313111811,0.0010108489077538,0.0010650221956893,-0.0014111548662185,-0.0013068423140794,-9.81874656677246,0,0,28.997169494628903,1,1,1000,1000,2.920498,0,0.0010650221956893,0.0010650221956893,0.0,0,0.0010650221956893
1778788395.6197047,68804967,1,0.0008941743290051,0.0007010925328359,0.0008991155773401,-0.0012863584561273,-0.0002414530317764,-9.81861972808838,0,0,28.997169494628903,1,1,760,800,2.920498,0,0.0008991155773401,0.0008991155773401,0.0,0,0.0008991155773401
1778788395.6596887,68844951,0,0.0009047393104992,0.0008997407276183,0.0010169936576858,-0.0013805112103,-2.530822530388832e-05,-9.81753635406494,0,0,28.999303817749023,1,1,1000,1000,2.960482,0,0.0010169936576858,0.0010169936576858,0.0,0,0.0010169936576858
1778788395.6596887,68844951,1,0.0011604011524468,0.0011965779121965,0.0008588517084717,-0.0003452954115346,0.0024564680643379,-9.819339752197266,0,0,28.999303817749023,1,1,760,800,2.960482,0,0.0008588517084717,0.0008588517084717,0.0,0,0.0008588517084717
1778788395.6996727,68884935,0,0.0010401175823062,0.000940955011174,0.0010582620743662,-0.0002496698580216,-0.0006507121142931,-9.819687843322754,0,0,29.001436233520508,1,1,1000,1000,3.000466,0,0.0010582620743662,0.0010582620743662,0.0,0,0.0010582620743662
1778788395.6996727,68884935,1,0.0010535833425819,0.0009750569006428,0.0010548471473157,0.0001790618844097,-0.0021341298706829,-9.817906379699709,0,0,29.001436233520508,1,1,760,800,3.000466,0,0.0010548471473157,0.0010548471473157,0.0,0,0.0010548471473157
1778788395.7396567,68924919,0,0.0009427173645235,0.0009353901259601,0.0009438558481633,-0.0014905063435435,-0.0021138216834515,-9.818645477294922,0,0,29.003570556640625,1,1,1000,1000,3.04045,0,0.0009438558481633,0.0009438558481633,0.0,0,0.0009438558481633
1778788395.7396567,68924919,1,0.0009672775049693,0.0011038251686841,0.0012659084750339,-0.0005097466055303,-0.0011251000687479,-9.817235946655272,0,0,29.003570556640625,1,1,760,800,3.04045,0,0.0012659084750339,0.0012659084750339,0.0,0,0.0012659084750339
1778788395.7796412,68964903,0,0.0009207827388308,0.00099347170908,0.0009558337042108,-0.0011359468335285,-0.0009328768937848,-9.817816734313965,0,0,29.00570297241211,1,1,1000,1000,3.080434,0,0.0009558337042108,0.0009558337042108,0.0,0,0.0009558337042108
1778788395.7796412,68964903,1,0.0009190638083964,0.0009334057685919,0.0009571093833073,0.0028020851314067,-0.0015527593204751,-9.818029403686523,0,0,29.00570297241211,1,1,760,800,3.080434,0,0.0009571093833073,0.0009571093833073,0.0,0,0.0009571093833073
1778788395.8196251,69004887,0,0.0009587837848812,0.0008918792009353,0.0009305589483119,-0.0012747414875775,-0.0015163916395977,-9.817944526672363,0,0,29.0078353881836,1,1,1000,1000,3.120418,0,0.0009305589483119,0.0009305589483119,0.0,0,0.0009305589483119
1778788395.8196251,69004887,1,0.0008450364693999,0.0008864981937222,0.0008886178256943,-0.0031484002247452,-0.0023118031676858,-9.816265106201172,0,0,29.0078353881836,1,1,760,800,3.120418,0,0.0008886178256943,0.0008886178256943,0.0,0,0.0008886178256943
1778788395.8596091,69044871,0,0.0010197458323091,0.000990571686998,0.0010292138904333,-0.0020110681653022,-0.0011921327095478,-9.817174911499023,0,0,29.00996780395508,1,1,1000,1000,3.160402,0,0.0010292138904333,0.0010292138904333,0.0,0,0.0010292138904333
1778788395.8596091,69044871,1,0.0010686228051781,0.0009230384603142,0.0009201338980346,-0.0016350243240594,0.0010113132884725,-9.815571784973145,0,0,29.00996780395508,1,1,760,800,3.160402,0,0.0009201338980346,0.0009201338980346,0.0,0,0.0009201338980346
1778788395.899593,69084855,0,0.000967284257058,0.0009135470027104,0.0009780758991837,-0.0007225553854368,-0.0009518585866317,-9.816997528076172,0,0,29.01210021972656,1,1,1000,1000,3.200386,0,0.0009780758991837,0.0009780758991837,0.0,0,0.0009780758991837
1778788395.899593,69084855,1,0.0011165445903316,0.0009457903215661,0.0009833177318796,-0.001728965435177,-0.000386593514122,-9.818964004516602,0,0,29.01210021972656,1,1,760,800,3.200386,0,0.0009833177318796,0.0009833177318796,0.0,0,0.0009833177318796
1778788395.939577,69124839,0,0.0009636262548156,0.001023300923407,0.0009369570179842,-0.0016895220614969,-0.0010353940306231,-9.817608833312988,0,0,29.01423072814941,1,1,1000,1000,3.24037,0,0.0009369570179842,0.0009369570179842,0.0,0,0.0009369570179842
1778788395.939577,69124839,1,0.0009686599951237,0.0008036926155909,0.0009160907356999,0.0002268078387714,-2.1440275304485112e-05,-9.815686225891112,0,0,29.01423072814941,1,1,760,800,3.24037,0,0.0009160907356999,0.0009160907356999,0.0,0,0.0009160907356999
1778788395.979561,69164823,0,0.0010197337251156,0.0009312198380939,0.0010142686078324,-0.0014530159533023,-0.0017950042383745,-9.817153930664062,0,0,29.016361236572266,1,1,1000,1000,3.280354,0,0.0010142686078324,0.0010142686078324,0.0,0,0.0010142686078324
1778788395.979561,69164823,1,0.0007718629203736,0.0009421676513738,0.0009497212013229,-0.0011426546843722,-0.0015680514043197,-9.818090438842772,0,0,29.016361236572266,1,1,760,800,3.280354,0,0.0009497212013229,0.0009497212013229,0.0,0,0.0009497212013229
1778788396.019545,69204807,0,0.0009337732335552,0.0010334855178371,0.0009473214740864,-0.0010305632604286,-0.0017918606754392,-9.817591667175291,0,0,29.01849365234375,1,1,1000,1000,3.320338,0,0.0009473214740864,0.0009473214740864,0.0,0,0.0009473214740864
1778788396.019545,69204807,1,0.0010000243782997,0.0010073285084217,0.0009097661240957,-0.0017624156316742,-0.0002619775477796,-9.819931030273438,0,0,29.01849365234375,1,1,760,800,3.320338,0,0.0009097661240957,0.0009097661240957,0.0,0,0.0009097661240957
1778788396.059529,69244791,0,0.0009711067541502,0.0009678846108727,0.0010294661624357,-0.0012257599737495,-0.000749732600525,-9.81841278076172,0,0,29.02062225341797,1,1,1000,1000,3.360322,0,0.0010294661624357,0.0010294661624357,0.0,0,0.0010294661624357
1778788396.059529,69244791,1,0.0009508047369308,0.0009072974207811,0.00070219731424,-0.0029884739778935,-0.0001799881720216,-9.816689491271973,0,0,29.02062225341797,1,1,760,800,3.360322,0,0.00070219731424,0.00070219731424,0.0,0,0.00070219731424
1778788396.099513,69284775,0,0.0009735104395076,0.0010274251690134,0.0009539345046505,-0.0006639911443926,-0.0011388536076992,-9.8180570602417,0,0,29.022754669189453,1,1,1000,1000,3.400306,0,0.0009539345046505,0.0009539345046505,0.0,0,0.0009539345046505
1778788396.099513,69284775,1,0.0010332257952541,0.0008593111415393,0.0010379672748968,0.0006029476644471,-0.0004941052757203,-9.817559242248535,0,0,29.022754669189453,1,1,760,800,3.400306,0,0.0010379672748968,0.0010379672748968,0.0,0,0.0010379672748968
1778788396.139497,69324759,0,0.0009779806714504,0.0009798251558095,0.0010763261234387,-0.0014603737508878,-0.0011304913787171,-9.816576957702637,0,0,29.024885177612305,1,1,1000,1000,3.44029,0,0.0010763261234387,0.0010763261234387,0.0,0,0.0010763261234387
1778788396.139497,69324759,1,0.0009757953812368,0.00103183707688,0.001185510540381,-0.0024889402557164,-0.0003854020033031,-9.815902709960938,0,0,29.024885177612305,1,1,760,800,3.44029,0,0.001185510540381,0.001185510540381,0.0,0,0.001185510540381
1778788396.179481,69364743,0,0.0009259932558052,0.0009127767407335,0.0009995006257668,-0.0005884417332708,-0.0014642809983342,-9.817058563232422,0,0,29.027013778686523,1,1,1000,1000,3.480274,0,0.0009995006257668,0.0009995006257668,0.0,0,0.0009995006257668
1778788396.179481,69364743,1,0.000833841622807,0.0009213827433995,0.000859449384734,-0.0019313010852783,-0.001061302376911,-9.81549072265625,0,0,29.027013778686523,1,1,760,800,3.480274,0,0.000859449384734,0.000859449384734,0.0,0,0.000859449384734
1778788396.219465,69404727,0,0.0010068439878523,0.0009761629626154,0.0009429032797925,-0.0015583733329549,-0.0003650040307547,-9.81637191772461,0,0,29.02914428710937,1,1,1000,1000,3.520258,0,0.0009429032797925,0.0009429032797925,0.0,0,0.0009429032797925
1778788396.219465,69404727,1,0.0010429976973682,0.0009386009769514,0.0009416033281013,-0.0028387263882905,-0.0007741039735265,-9.8201265335083,0,0,29.02914428710937,1,1,760,800,3.520258,0,0.0009416033281013,0.0009416033281013,0.0,0,0.0009416033281013
1778788396.259449,69444711,0,0.0009947875514626,0.0009492791723459,0.0009902687743306,-0.0015801873523741,-0.0013572530588135,-9.817253112792969,0,0,29.0312728881836,1,1,1000,1000,3.560242,0,0.0009902687743306,0.0009902687743306,0.0,0,0.0009902687743306
1778788396.259449,69444711,1,0.0009971184190362,0.0009278549114242,0.0008911007898859,-0.0003366176679264,-0.0009025469189509,-9.816654205322266,0,0,29.0312728881836,1,1,760,800,3.560242,0,0.0008911007898859,0.0008911007898859,0.0,0,0.0008911007898859
1778788396.2994328,69484695,0,0.0010076833423227,0.0009455708786845,0.0009566663065925,-0.001138016115874,-0.000962168618571,-9.817425727844238,0,0,29.03340148925781,1,1,1000,1000,3.600226,0,0.0009566663065925,0.0009566663065925,0.0,0,0.0009566663065925
1778788396.2994328,69484695,1,0.0009579031611792,0.0009593189461156,0.0011917318915948,-0.0018276483751833,-0.005735061597079,-9.815752029418944,0,0,29.03340148925781,1,1,760,800,3.600226,0,0.0011917318915948,0.0011917318915948,0.0,0,0.0011917318915948
1778788396.3394167,69524679,0,0.0010113440221175,0.000979502685368,0.0009856963297352,-0.0011984771117568,-0.0010602421825751,-9.81684684753418,0,0,29.03553009033203,1,1,1000,1000,3.64021,0,0.0009856963297352,0.0009856963297352,0.0,0,0.0009856963297352
1778788396.3394167,69524679,1,0.0008975841337814,0.0009974807035177,0.0011483273701742,0.0008950313786044,-0.0009278593934141,-9.818052291870115,0,0,29.03553009033203,1,1,760,800,3.64021,0,0.0011483273701742,0.0011483273701742,0.0,0,0.0011483273701742
1778788396.3794007,69564663,0,0.0010102685773745,0.0009907992789521,0.0009243977256119,-0.0001447221293346,-0.0019520263886079,-9.817512512207031,0,0,29.03765869140625,1,1,1000,1000,3.680194,0,0.0009243977256119,0.0009243977256119,0.0,0,0.0009243977256119
1778788396.3794007,69564663,1,0.000972747860942,0.0010633545462042,0.000997124472633,0.0004699317505583,-0.0009988534729927,-9.816959381103516,0,0,29.03765869140625,1,1,760,800,3.680194,0,0.000997124472633,0.000997124472633,0.0,0,0.000997124472633
1778788396.4193847,69604647,0,0.000981202116236,0.0009746231371536,0.0010343611938878,-0.0007482973160222,-0.0008735093288123,-9.818294525146484,0,0,29.03978729248047,1,1,1000,1000,3.720178,0,0.0010343611938878,0.0010343611938878,0.0,0,0.0010343611938878
1778788396.4193847,69604647,1,0.0011201633606106,0.0008707247325219,0.0008600980509072,-0.0011296611046418,0.0010343117173761,-9.81778621673584,0,0,29.03978729248047,1,1,760,800,3.720178,0,0.0008600980509072,0.0008600980509072,0.0,0,0.0008600980509072
1778788396.4593687,69644631,0,0.0010391569230705,0.0009776038350537,0.0010015075094997,-0.000919523066841,-0.0012604801449924,-9.817028999328612,0,0,29.041915893554688,1,1,1000,1000,3.760162,0,0.0010015075094997,0.0010015075094997,0.0,0,0.0010015075094997
1778788396.4593687,69644631,1,0.0008711447007954,0.0011379932984709,0.001076846383512,-0.0021041685249656,-0.0009843087755143,-9.816585540771484,0,0,29.041915893554688,1,1,760,800,3.760162,0,0.001076846383512,0.001076846383512,0.0,0,0.001076846383512
1778788396.4993527,69684615,0,0.0009670168510638,0.0009800082771107,0.0009296465432271,-0.0008267431985586,-0.0009854020318016,-9.817087173461914,0,0,29.04404258728028,1,1,1000,1000,3.800146,0,0.0009296465432271,0.0009296465432271,0.0,0,0.0009296465432271
1778788396.4993527,69684615,1,0.0010694143129512,0.0009910771623253,0.0010685146553441,-0.0016175503842532,-0.0006126549560576,-9.817587852478027,0,0,29.04404258728028,1,1,760,800,3.800146,0,0.0010685146553441,0.0010685146553441,0.0,0,0.0010685146553441
1778788396.5393367,69724599,0,0.0009835002711042,0.0009750537574291,0.0010004087816923,-0.000651121197734,-0.0004530599690042,-9.817325592041016,0,0,29.04616928100586,1,1,1000,1000,3.84013,0,0.0010004087816923,0.0010004087816923,0.0,0,0.0010004087816923
1778788396.5393367,69724599,1,0.0007154117920435,0.0009475306142121,0.0010590008459985,-0.0004732632369268,3.103489871136844e-05,-9.816842079162598,0,0,29.04616928100586,1,1,760,800,3.84013,0,0.0010590008459985,0.0010590008459985,0.0,0,0.0010590008459985
1778788396.5793211,69764583,0,0.000970130204223,0.0010293527739122,0.0010493258014321,-0.0014295217115432,-0.0011453013867139,-9.818320274353027,0,0,29.04829788208008,1,1,1000,1000,3.880114,0,0.0010493258014321,0.0010493258014321,0.0,0,0.0010493258014321
1778788396.5793211,69764583,1,0.0008740698685869,0.0010369663359597,0.0009370867628604,-0.0008232694817706,0.0002987957850564,-9.817121505737305,0,0,29.04829788208008,1,1,760,800,3.880114,0,0.0009370867628604,0.0009370867628604,0.0,0,0.0009370867628604
1778788396.6193051,69804567,0,0.0010076081380248,0.0009946555364876,0.0010129227302968,-0.0006513671251013,-0.0012858681147918,-9.816723823547363,0,0,29.050424575805664,1,1,1000,1000,3.920098,0,0.0010129227302968,0.0010129227302968,0.0,0,0.0010129227302968
1778788396.6193051,69804567,1,0.0010030075209215,0.0008094673976302,0.0010340508306398,-0.0003400163841433,-0.0013770617078989,-9.816486358642578,0,0,29.050424575805664,1,1,760,800,3.920098,0,0.0010340508306398,0.0010340508306398,0.0,0,0.0010340508306398
1778788396.6592891,69844551,0,0.0009779194369912,0.0009987454395741,0.0009937571594491,-0.0006078724982216,-0.0012229706626385,-9.818031311035156,0,0,29.052549362182617,1,1,1000,1000,3.960082,0,0.0009937571594491,0.0009937571594491,0.0,0,0.0009937571594491
1778788396.6592891,69844551,1,0.0010127068962901,0.0010095799807459,0.0009468143689446,0.0004850820987485,0.0006917180726304,-9.819272994995115,0,0,29.052549362182617,1,1,760,800,3.960082,0,0.0009468143689446,0.0009468143689446,0.0,0,0.0009468143689446
1778788396.699273,69884535,0,0.0009882820304483,0.0009709142614156,0.0010401798645034,-0.0015152326086536,-0.0011359602212905,-9.816645622253418,0,0,29.054676055908203,1,1,1000,1000,4.000066,0,0.0010401798645034,0.0010401798645034,0.0,0,0.0010401798645034
1778788396.699273,69884535,1,0.0010421945480629,0.000857776030898,0.0009578748140484,-0.0003781510458793,-0.0011992384679615,-9.816617965698242,0,0,29.054676055908203,1,1,760,800,4.000066,0,0.0009578748140484,0.0009578748140484,0.0,0,0.0009578748140484
1778788396.739257,69924519,0,0.0010224184952676,0.0009925753111019,0.0009126468212343,-0.0013764820760115,-0.0008236574940383,-9.81672477722168,0,0,29.05680084228516,1,1,1000,1000,4.04005,0,0.0009126468212343,0.0009126468212343,0.0,0,0.0009126468212343
1778788396.739257,69924519,1,0.0008672956610098,0.001058880938217,0.0009100073948502,0.0011734542204067,-0.0011531420750543,-9.816306114196776,0,0,29.05680084228516,1,1,760,800,4.04005,0,0.0009100073948502,0.0009100073948502,0.0,0,0.0009100073948502
1778788396.779241,69964503,0,0.0009923016186803,0.0009767560986801,0.0009593102149665,-0.0019213953055441,-0.0003266145649831,-9.817708969116213,0,0,29.058927536010746,1,1,1000,1000,4.080034,0,0.0009593102149665,0.0009593102149665,0.0,0,0.0009593102149665
1778788396.779241,69964503,1,0.00098582287319,0.0009034721879288,0.000921553466469,-0.0033545310143381,-8.288647222798318e-05,-9.818102836608888,0,0,29.058927536010746,1,1,760,800,4.080034,0,0.000921553466469,0.000921553466469,0.0,0,0.000921553466469
1778788396.819225,70004487,0,0.0009644880192354,0.0010200651595368,0.000997353810817,0.0003715943021234,-0.0016007318627089,-9.817456245422363,0,0,29.06105232238769,1,1,1000,1000,4.120018,0,0.000997353810817,0.000997353810817,0.0,0,0.000997353810817
1778788396.819225,70004487,1,0.0008625441114418,0.0008362066582776,0.001049785525538,0.000351131777279,0.0011569440830498,-9.818477630615234,0,0,29.06105232238769,1,1,760,800,4.120018,0,0.001049785525538,0.001049785525538,0.0,0,0.001049785525538
1778788396.859209,70044471,0,0.0009420762071385,0.0009629631531424,0.0009698011563159,-0.0011571851791813,-0.0019044232321903,-9.816539764404297,0,0,29.06317901611328,1,1,1000,1000,4.160002,0,0.0009698011563159,0.0009698011563159,0.0,0,0.0009698011563159
1778788396.859209,70044471,1,0.0009201972279697,0.0007583670085296,0.0007543468382209,-0.0017577131511643,-0.00342015363276,-9.818282127380373,0,0,29.06317901611328,1,1,760,800,4.160002,0,0.0007543468382209,0.0007543468382209,0.0,0,0.0007543468382209
1778788396.900026,70085288,0,0.0010118971113115,0.0010196797084063,0.0009942699689418,-0.0007778687868267,-0.0011170539073646,-9.817697525024414,0,0,29.06535720825196,1,1,1000,1000,4.200819,0,0.0009942699689418,0.0009942699689418,0.0,0,0.0009942699689418
1778788396.900026,70085288,1,0.0008777700131759,0.000979273347184,0.000984818325378,-0.0010647374438121,0.0006996362935751,-9.817028045654297,0,0,29.065303802490234,1,1,760,800,4.200819,0,0.000984818325378,0.000984818325378,0.0,0,0.000984818325378
1778788396.94001,70125272,0,0.0010104265529662,0.0009623212390579,0.0009620528435334,-0.00034813201637,-0.0004081773222424,-9.817407608032228,0,0,29.06748008728028,1,1,1000,1000,4.240803,0,0.0009620528435334,0.0009620528435334,0.0,0,0.0009620528435334
1778788396.94001,70125272,1,0.001049724407494,0.0009547357913106,0.0009521624306216,-0.0005040516844019,-0.0017834105528891,-9.819171905517578,0,0,29.067428588867188,1,1,760,800,4.240803,0,0.0009521624306216,0.0009521624306216,0.0,0,0.0009521624306216
1778788396.979994,70165256,0,0.0009944727644324,0.0009588263346813,0.0009723503026179,-0.0001107369171222,-0.0003535700670909,-9.818429946899414,0,0,29.069604873657227,1,1,1000,1000,4.280787,0,0.0009723503026179,0.0009723503026179,0.0,0,0.0009723503026179
1778788396.979994,70165256,1,0.0009994753636419,0.0011065676808357,0.0008549141348339,-0.003841581987217,-0.0016932976432144,-9.817327499389648,0,0,29.069551467895508,1,1,760,800,4.280787,0,0.0008549141348339,0.0008549141348339,0.0,0,0.0008549141348339
1778788397.019978,70205240,0,0.0009872252121567,0.0009766607545316,0.0010161615209653,-0.0003893575049005,-0.0011986179742962,-9.817572593688965,0,0,29.071727752685547,1,1,1000,1000,4.320771,0,0.0010161615209653,0.0010161615209653,0.0,0,0.0010161615209653
1778788397.019978,70205240,1,0.0010290944483131,0.0010671009076759,0.0011143237352371,-0.0020073298364877,-0.0014853338943794,-9.817943572998049,0,0,29.071674346923828,1,1,760,800,4.320771,0,0.0011143237352371,0.0011143237352371,0.0,0,0.0011143237352371
1778788397.059962,70245224,0,0.0010015241568908,0.0009913211688399,0.0010264276061207,-0.0010104670654982,-0.0017308734823018,-9.818033218383787,0,0,29.07379913330078,1,1,1000,1000,4.360755,0,0.0010264276061207,0.0010264276061207,0.0,0,0.0010264276061207
1778788397.059962,70245224,1,0.0011068008607253,0.0009735592757351,0.0009874739916995,-0.0025247232988476,-0.0010080311913043,-9.816515922546388,0,0,29.07379913330078,1,1,760,800,4.360755,0,0.0009874739916995,0.0009874739916995,0.0,0,0.0009874739916995
1778788397.099946,70285208,0,0.0009926063939929,0.0010067680850625,0.0009971087565645,-0.0014574989909306,-0.0014832585584372,-10.003396034240724,0,0,29.07592391967773,1,1,1000,1000,4.400739,0,0.0009971087565645,0.0009971087565645,0.0,0,0.0009971087565645
1778788397.099946,70285208,1,0.0009775847429409,0.0009730781894177,0.0012066493509337,-0.0001015203961287,6.554399442393333e-05,-10.005574226379396,0,0,29.07592391967773,1,1,760,800,4.400739,0,0.0012066493509337,0.0012066493509337,0.0,0,0.0012066493509337
1778788397.13993,70325192,0,0.0010043317452073,0.0009889876237139,0.0010274825617671,-0.0009296637726947,-0.0010136353084817,-10.502392768859863,0,0,29.078044891357425,1,1,1000,1000,4.440723,0,0.0010274825617671,0.0010274825617671,0.0,0,0.0010274825617671
1778788397.13993,70325192,1,0.0010089629795402,0.0009135769796557,0.0011413635220378,-0.0005950387567281,-0.0011283954372629,-10.501659393310549,0,0,29.078044891357425,1,1,760,800,4.440723,0,0.0011413635220378,0.0011413635220378,0.0,0,0.0011413635220378
1778788397.179914,70365176,0,0.0009626141982153,0.0009936043061316,0.0010103464592248,-0.0013327320339158,-0.0010603959672152,-10.395122528076172,0,0,29.08016967773437,1,1,1000,1000,4.480707,0,0.0010103464592248,0.0010103464592248,0.0,0,0.0010103464592248
1778788397.179914,70365176,1,0.0010776338167488,0.0010121484519913,0.0009403741569258,-0.0021239577326923,-0.0007121004164218,-10.394464492797852,0,0,29.08016967773437,1,1,760,800,4.480707,0,0.0009403741569258,0.0009403741569258,0.0,0,0.0009403741569258
1778788397.219898,70405160,0,0.0010130614973604,0.0010228753089904,0.0010453755967319,-0.0014377285260707,-0.0019184382399544,-10.363421440124512,0,0,29.082290649414062,1,1,1000,1000,4.520691,0,0.0010453755967319,0.0010453755967319,0.0,0,0.0010453755967319
1778788397.219898,70405160,1,0.0008843889227136,0.0007415412110276,0.001007342361845,-9.691843297332524e-05,-0.0009916891576722,-10.363616943359377,0,0,29.082290649414062,1,1,760,800,4.520691,0,0.001007342361845,0.001007342361845,0.0,0,0.001007342361845
1778788397.259882,70445144,0,0.0010202236007899,0.0009559229947626,0.0009836752433329,-0.0012382295681163,-0.0014557014219462,-10.400712966918944,0,0,29.084413528442383,1,1,1000,1000,4.560675,0,0.0009836752433329,0.0009836752433329,0.0,0,0.0009836752433329
1778788397.259882,70445144,1,0.0011365131940692,0.0009146863012574,0.0010501367505639,-0.0013702900614589,-0.0018488049972802,-10.400989532470703,0,0,29.084413528442383,1,1,760,800,4.560675,0,0.0010501367505639,0.0010501367505639,0.0,0,0.0010501367505639
1778788397.299866,70485128,0,0.0009456148836761,0.0010269184131175,0.0010516226757317,-0.0017226072959601,-0.000829093682114,-10.390869140625,0,0,29.08653450012207,1,1,1000,1000,4.600659,0,0.0010516226757317,0.0010516226757317,0.0,0,0.0010516226757317
1778788397.299866,70485128,1,0.0010046093957498,0.0009816153906285,0.0011098908726125,-0.0027193310670554,-0.0011687953956425,-10.390789031982422,0,0,29.08653450012207,1,1,760,800,4.600659,0,0.0011098908726125,0.0011098908726125,0.0,0,0.0011098908726125
1778788397.33985,70525112,0,0.0010392188560217,0.0009827283211052,0.0009742291877046,-0.0002722190110944,-0.0013652868801727,-10.360889434814451,0,0,29.08865737915039,1,1,1000,1000,4.640643,0,0.0009742291877046,0.0009742291877046,0.0,0,0.0009742291877046
1778788397.33985,70525112,1,0.0009881505975499,0.0011005558772012,0.0010291642975062,0.0009781708940863,-0.0009743485134094,-10.361909866333008,0,0,29.08865737915039,1,1,760,800,4.640643,0,0.0010291642975062,0.0010291642975062,0.0,0,0.0010291642975062
1778788397.379834,70565096,0,0.0010122419334948,0.0010578776709735,0.0009923696052283,-0.0010131638264283,-0.0002425723505439,-10.341657638549805,0,0,29.09077835083008,1,1,1000,1000,4.680627,0,0.0009923696052283,0.0009923696052283,0.0,0,0.0009923696052283
1778788397.379834,70565096,1,0.0011572833172976,0.0010403495980426,0.000927556247916,-0.0015459150308743,0.0008881074609234,-10.344233512878418,0,0,29.09077835083008,1,1,760,800,4.680627,0,0.000927556247916,0.000927556247916,0.0,0,0.000927556247916
1778788397.419818,70605080,0,0.0010165539570152,0.0009922379394993,0.0010209844913333,-0.00151573412586,-0.0027251108549535,-10.336435317993164,0,0,29.09289932250977,1,1,1000,1000,4.720611,0,0.0010209844913333,0.0010209844913333,0.0,0,0.0010209844913333
1778788397.419818,70605080,1,0.000923526531551,0.0010257663670927,0.0009803298162296,0.002666390268132,0.0012585223885253,-10.335208892822266,0,0,29.09289932250977,1,1,760,800,4.720611,0,0.0009803298162296,0.0009803298162296,0.0,0,0.0009803298162296
1778788397.459802,70645064,0,0.0009898991556838,0.0009829270420596,0.0009736423380672,-0.0007755543338134,-0.0009360844269394,-10.340020179748535,0,0,29.09507369995117,1,1,1000,1000,4.760595,0,0.0009736423380672,0.0009736423380672,0.0,0,0.0009736423380672
1778788397.459802,70645064,1,0.0011480492539703,0.0008768044644966,0.0010426775552332,-0.0019290233030915,0.0003326323931105,-10.340876579284668,0,0,29.09507369995117,1,1,760,800,4.760595,0,0.0010426775552332,0.0010426775552332,0.0,0,0.0010426775552332
1778788397.499786,70685048,0,0.0009879292920231,0.0010034649167209,0.0010600604582577,-0.0003526298096403,-0.0014572814106941,-10.351202011108398,0,0,29.09719467163086,1,1,1000,1000,4.800579,0,0.0010600604582577,0.0010600604582577,0.0,0,0.0010600604582577
1778788397.499786,70685048,1,0.0008409737492911,0.0009890052024275,0.0009930455125868,0.0004608004237525,0.0002668165252543,-10.35240364074707,0,0,29.09719467163086,1,1,760,800,4.800579,0,0.0009930455125868,0.0009930455125868,0.0,0,0.0009930455125868
1778788397.53977,70725032,0,0.0009932960383594,0.000984025420621,0.00104888190981,-0.00109578599222,-0.0006314035272225,-10.366983413696287,0,0,29.09931373596192,1,1,1000,1000,4.840563,0,0.00104888190981,0.00104888190981,0.0,0,0.00104888190981
1778788397.53977,70725032,1,0.0009618130279704,0.0011130860075354,0.0009396568639203,-0.0009664166718721,-0.0001762135943863,-10.367371559143066,0,0,29.09931373596192,1,1,760,800,4.840563,0,0.0009396568639203,0.0009396568639203,0.0,0,0.0009396568639203
1778788397.579754,70765016,0,0.0009631269495002,0.0010115061886608,0.0009904416510835,-0.0014134987723082,-0.0008817611960694,-10.382652282714844,0,0,29.10143280029297,1,1,1000,1000,4.880547,0,0.0009904416510835,0.0009904416510835,0.0,0,0.0009904416510835
1778788397.579754,70765016,1,0.0009759333916008,0.0009723405819386,0.001129413372837,-0.0006303599802777,-0.0022603219840675,-10.377836227416992,0,0,29.10143280029297,1,1,760,800,4.880547,0,0.001129413372837,0.001129413372837,0.0,0,0.001129413372837
1778788397.619738,70805000,0,0.0009631901048123,0.0009906763443723,0.0010399330640211,-0.0008745135273784,-0.0016925676027312,-10.39805793762207,0,0,29.103553771972656,1,1,1000,1000,4.920531,0,0.0010399330640211,0.0010399330640211,0.0,0,0.0010399330640211
1778788397.619738,70805000,1,0.0010090739233419,0.0011247105430811,0.0009469618089497,-0.0030082543380558,-0.0005084184231236,-10.396459579467772,0,0,29.103553771972656,1,1,760,800,4.920531,0,0.0009469618089497,0.0009469618089497,0.0,0,0.0009469618089497
1778788397.659722,70844984,0,0.0010446474188938,0.0010056131286546,0.0009580412879586,-0.0004288435738999,-0.0021196524612605,-10.41465950012207,0,0,29.105619430541992,1,1,1000,1000,4.960515,0,0.0009580412879586,0.0009580412879586,0.0,0,0.0009580412879586
1778788397.659722,70844984,1,0.0008599367574788,0.0009222424123436,0.0010092669399455,-0.0024186277296394,-0.0025732303038239,-10.413738250732422,0,0,29.105619430541992,1,1,760,800,4.960515,0,0.0010092669399455,0.0010092669399455,0.0,0,0.0010092669399455
1778788397.699706,70884968,0,0.0009332436602562,0.0010128321591764,0.0010289507918059,-0.0007305524777621,-0.0017186829354614,-10.427777290344238,0,0,29.107738494873047,1,1,1000,1000,5.000499,0,0.0010289507918059,0.0010289507918059,0.0,0,0.0010289507918059
1778788397.699706,70884968,1,0.0011671311222016,0.0009770158212631,0.0008936211233958,-0.0017694401321932,-0.0009958134032785,-10.42778778076172,0,0,29.107738494873047,1,1,760,800,5.000499,0,0.0008936211233958,0.0008936211233958,0.0,0,0.0008936211233958
1778788397.73969,70924952,0,0.0010309402132406,0.0010032666614279,0.0009935263078659,-0.0015056995907798,-0.000445317447884,-10.448966979980469,0,0,29.10985946655273,1,1,1000,1000,5.040483,0,0.0009935263078659,0.0009935263078659,0.0,0,0.0009935263078659
1778788397.73969,70924952,1,0.0009408282348886,0.0009847485926002,0.0008968639886006,0.0008584735332988,-0.0009035676484927,-10.450891494750977,0,0,29.10985946655273,1,1,760,800,5.040483,0,0.0008968639886006,0.0008968639886006,0.0,0,0.0008968639886006
1778788397.779674,70964936,0,-0.0156926326453685,-0.0154369473457336,0.0010973539901897,-0.0002316590689588,-0.0011440340895205,-13.600114822387695,0,0,29.11197662353516,1,1,1000,1000,5.080467,0,0.0010973539901897,0.0010973539901897,0.0,0,0.0010973539901897
1778788397.779674,70964936,1,-0.0159150809049606,-0.0153675293549895,0.0012587085366249,-0.0028307389002293,-0.0016877952730283,-13.61231517791748,0,0,29.11197662353516,1,1,760,800,5.080467,0,0.0012587085366249,0.0012587085366249,0.0,0,0.0012587085366249
1778788397.819658,71004920,0,-0.0197669863700866,-0.0187245421111583,0.0012411110801622,-0.0032043294049799,0.0010487181134521,-15.151910781860352,0,0,29.11409378051757,1,1,1000,1000,5.120451,0,0.0012411110801622,0.0012411110801622,0.0,0,0.0012411110801622
1778788397.819658,71004920,1,-0.0196980498731136,-0.0187290161848068,0.0011525243753567,-0.0029817409813404,0.0009586162632331,-15.15349578857422,0,0,29.11409378051757,1,1,760,800,5.120451,0,0.0011525243753567,0.0011525243753567,0.0,0,0.0011525243753567
1778788397.859642,71044904,0,-0.0178452972322702,-0.0178534984588623,0.0014678707811981,-0.008168913424015,0.0071533462032675,-14.639036178588867,0,0,29.1162109375,1,1,1000,1000,5.160435,0,0.0014678707811981,0.0014678707811981,0.0,0,0.0014678707811981
1778788397.859642,71044904,1,-0.0178416222333908,-0.0176823884248733,0.0016026418888941,-0.0070186629891395,0.0058899973519146,-14.634614944458008,0,0,29.1162109375,1,1,760,800,5.160435,0,0.0016026418888941,0.0016026418888941,0.0,0,0.0016026418888941
1778788397.899626,71084888,0,-0.0155688151717185,-0.0158206857740879,0.0016001918120309,-0.0129685318097472,0.0108869280666112,-13.53217315673828,0,0,29.11833000183105,1,1,1000,1000,5.200419,0,0.0016001918120309,0.0016001918120309,0.0,0,0.0016001918120309
1778788397.899626,71084888,1,-0.0157190971076488,-0.015826478600502,0.0017522138077765,-0.0125137362629175,0.0107697360217571,-13.527594566345217,0,0,29.11833000183105,1,1,760,800,5.200419,0,0.0017522138077765,0.0017522138077765,0.0,0,0.0017522138077765
1778788397.93961,71124872,0,-0.0139602338895201,-0.0125999199226498,0.0016839834861457,-0.0151623748242855,0.0142905805259943,-12.29330062866211,0,0,29.12044715881348,1,1,1000,1000,5.240403,0,0.0016839834861457,0.0016839834861457,0.0,0,0.0016839834861457
1778788397.93961,71124872,1,-0.0139504196122288,-0.0125138740986585,0.0017790567362681,-0.0142126725986599,0.0122181084007024,-12.289278984069824,0,0,29.12044715881348,1,1,760,800,5.240403,0,0.0017790567362681,0.0017790567362681,0.0,0,0.0017790567362681
1778788397.979594,71164856,0,-0.0112794730812311,-0.0095979496836662,0.0016606081044301,-0.0149609940126538,0.0128782540559768,-11.160771369934082,0,0,29.1225643157959,1,1,1000,1000,5.280387,0,0.0016606081044301,0.0016606081044301,0.0,0,0.0016606081044301
1778788397.979594,71164856,1,-0.0111064268276095,-0.0095352502539753,0.0017733130371198,-0.0159658957272768,0.0145086199045181,-11.16057300567627,0,0,29.1225643157959,1,1,760,800,5.280387,0,0.0017733130371198,0.0017733130371198,0.0,0,0.0017733130371198
1778788398.019578,71204840,0,-0.0067050294019281,-0.0064364057034254,0.0017183374147862,-0.0118183000013232,0.0109765296801924,-10.24938678741455,0,0,29.12468147277832,1,1,1000,1000,5.320371,0,0.0017183374147862,0.0017183374147862,0.0,0,0.0017183374147862
1778788398.019578,71204840,1,-0.0068425927311182,-0.0064172181300818,0.0017640441656112,-0.0082606691867113,0.0106305330991745,-10.24980354309082,0,0,29.12468147277832,1,1,760,800,5.320371,0,0.0017640441656112,0.0017640441656112,0.0,0,0.0017640441656112
1778788398.059562,71244824,0,-0.0038068273570388,-0.0033117751590907,0.0016546947881579,-0.0095149185508489,0.0071725812740623,-9.610183715820312,0,0,29.12679672241211,1,1,1000,1000,5.360355,0,0.0016546947881579,0.0016546947881579,0.0,0,0.0016546947881579
1778788398.059562,71244824,1,-0.0038804167415946,-0.0034141619689762,0.001677960040979,-0.0096706580370664,0.005691135302186,-9.611787796020508,0,0,29.12679672241211,1,1,760,800,5.360355,0,0.001677960040979,0.001677960040979,0.0,0,0.001677960040979
1778788398.099546,71284808,0,-0.0008443334372714,-0.0004612611082848,0.0017207445343956,-0.0061301076784729,0.0019419175805523,-9.278079986572266,0,0,29.12891387939453,1,1,1000,1000,5.400339,0,0.0017207445343956,0.0017207445343956,0.0,0,0.0017207445343956
1778788398.099546,71284808,1,-0.0008691269904375,-0.000376476731617,0.001691048964858,-0.004724089987576,0.0042760460637509,-9.27916145324707,0,0,29.12891387939453,1,1,760,800,5.400339,0,0.001691048964858,0.001691048964858,0.0,0,0.001691048964858
1778788398.13953,71324792,0,0.0016165683045983,0.0020474679768085,0.0017111871857196,-0.0021433674264699,0.0010063287336379,-9.177408218383787,0,0,29.13103103637696,1,1,1000,1000,5.440323,0,0.0017111871857196,0.0017111871857196,0.0,0,0.0017111871857196
1778788398.13953,71324792,1,0.0016915730666369,0.0021177327726036,0.0017313077114522,-0.0037293469067662,-0.0004032733559142,-9.179844856262209,0,0,29.13103103637696,1,1,760,800,5.440323,0,0.0017313077114522,0.0017313077114522,0.0,0,0.0017313077114522
1778788398.179514,71364776,0,0.004475497175008,0.0039290897548198,0.0016718313563615,-0.0008159340941347,-0.0011428025318309,-9.263212203979492,0,0,29.133146286010746,1,1,1000,1000,5.480307,0,0.0016718313563615,0.0016718313563615,0.0,0,0.0016718313563615
1778788398.179514,71364776,1,0.0044163707643747,0.0037528588436543,0.0016510506393387,-0.0022601787932217,-0.0011515694204717,-9.263619422912598,0,0,29.133146286010746,1,1,760,800,5.480307,0,0.0016510506393387,0.0016510506393387,0.0,0,0.0016510506393387
1778788398.219498,71404760,0,0.0057028988376259,0.0063033904880285,0.0017447104910388,-0.0003470051451586,-0.001228999113664,-9.46231460571289,0,0,29.13526153564453,1,1,1000,1000,5.520291,0,0.0017447104910388,0.0017447104910388,0.0,0,0.0017447104910388
1778788398.219498,71404760,1,0.0054319002665579,0.0060886987484991,0.001713881152682,0.0008159255376085,-0.0023568393662571,-9.465998649597168,0,0,29.13526153564453,1,1,760,800,5.520291,0,0.001713881152682,0.001713881152682,0.0,0,0.001713881152682
1778788398.259482,71444744,0,0.0073165232315659,0.0075525725260376,0.0016638648230582,-0.0011116679525002,-0.0010910936398431,-9.726895332336426,0,0,29.13737678527832,1,1,1000,1000,5.560275,0,0.0016638648230582,0.0016638648230582,0.0,0,0.0016638648230582
1778788398.259482,71444744,1,0.0071634193882346,0.0074708666652441,0.0017486417200416,-0.0016387898940593,0.0003688760916702,-9.729907035827637,0,0,29.13737678527832,1,1,760,800,5.560275,0,0.0017486417200416,0.0017486417200416,0.0,0,0.0017486417200416
1778788398.299466,71484728,0,0.0082662189379334,0.007874310016632,0.0016210731118917,-0.001213232986629,-0.0001431644341209,-10.003192901611328,0,0,29.13949203491211,1,1,1000,1000,5.600259,0,0.0016210731118917,0.0016210731118917,0.0,0,0.0016210731118917
1778788398.299466,71484728,1,0.0082367751747369,0.0079601556062698,0.0015486443880945,-0.0002661497564986,-0.0002360143553232,-10.002190589904783,0,0,29.13949203491211,1,1,760,800,5.600259,0,0.0015486443880945,0.0015486443880945,0.0,0,0.0015486443880945
1778788398.33945,71524712,0,0.010162771679461,0.0091936849057674,0.001625876291655,-0.0023674690164625,0.0009977458976209,-10.259150505065918,0,0,29.141605377197266,1,1,1000,1000,5.640243,0,0.001625876291655,0.001625876291655,0.0,0,0.001625876291655
1778788398.33945,71524712,1,0.0099916625767946,0.0091404942795634,0.0015900621656328,-0.0032386309467256,0.000214373198105,-10.261515617370604,0,0,29.141605377197266,1,1,760,800,5.640243,0,0.0015900621656328,0.0015900621656328,0.0,0,0.0015900621656328
1778788398.379434,71564696,0,0.0111424345523118,0.010891874320805,0.0016309751663357,-0.003217987017706,0.0022959662601351,-10.47019386291504,0,0,29.14372062683105,1,1,1000,1000,5.680227,0,0.0016309751663357,0.0016309751663357,0.0,0,0.0016309751663357
1778788398.379434,71564696,1,0.0110314600169658,0.0107864029705524,0.0015353603521361,-0.0034628689754754,-0.0012174334842711,-10.469706535339355,0,0,29.14372062683105,1,1,760,800,5.680227,0,0.0015353603521361,0.0015353603521361,0.0,0,0.0015353603521361
1778788398.419418,71604680,0,0.0106434160843491,0.0107431095093488,0.0015362841077148,-0.0048952237702906,0.0029096095822751,-10.638961791992188,0,0,29.14583396911621,1,1,1000,1000,5.720211,0,0.0015362841077148,0.0015362841077148,0.0,0,0.0015362841077148
1778788398.419418,71604680,1,0.0104645611718297,0.0107165183871984,0.0015903915045782,-0.006161549128592,0.0025833719410002,-10.637901306152344,0,0,29.14583396911621,1,1,760,800,5.720211,0,0.0015903915045782,0.0015903915045782,0.0,0,0.0015903915045782
1778788398.459402,71644664,0,0.0122646503150463,0.010973141528666,0.0014967157039791,-0.0048232469707727,0.0032346346415579,-10.752931594848633,0,0,29.14794921875,1,1,1000,1000,5.760195,0,0.0014967157039791,0.0014967157039791,0.0,0,0.0014967157039791
1778788398.459402,71644664,1,0.0122858416289091,0.0109181627631187,0.0015032461378723,-0.0045109866186976,0.0011818539351224,-10.755301475524902,0,0,29.14794921875,1,1,760,800,5.760195,0,0.0015032461378723,0.0015032461378723,0.0,0,0.0015032461378723
1778788398.499386,71684648,0,0.0090590752661228,0.0070073707029223,0.0014980609994381,-0.0054031629115343,0.0033586344216018,-10.817626953125,0,0,29.15006256103516,1,1,1000,1000,5.800179,0,0.0014980609994381,0.0014980609994381,0.0,0,0.0014980609994381
1778788398.499386,71684648,1,0.0090574026107788,0.0070844399742782,0.0013387636281549,-0.008521307259798,0.0057578720152378,-10.815449714660645,0,0,29.15006256103516,1,1,760,800,5.800179,0,0.0013387636281549,0.0013387636281549,0.0,0,0.0013387636281549
1778788398.53937,71724632,0,0.0113495448604226,0.0101080844178795,0.0015049327630549,-0.0050023756921291,0.0044735996052622,-10.84604263305664,0,0,29.152175903320312,1,1,1000,1000,5.840163,0,0.0015049327630549,0.0015049327630549,0.0,0,0.0015049327630549
1778788398.53937,71724632,1,0.0110536674037575,0.0099682565778493,0.0015470287762582,-0.006676064338535,0.0043146181851625,-10.847372055053713,0,0,29.152175903320312,1,1,760,800,5.840163,0,0.0015470287762582,0.0015470287762582,0.0,0,0.0015470287762582
1778788398.579354,71764616,0,0.0100977662950754,0.0086725987493991,0.0014250460080802,-0.0075155012309551,0.0047102184034883,-10.872855186462402,0,0,29.15428733825684,1,1,1000,1000,5.880147,0,0.0014250460080802,0.0014250460080802,0.0,0,0.0014250460080802
1778788398.579354,71764616,1,0.0101094897836446,0.0087987855076789,0.0014662763569504,-0.0076515735127031,0.0042525609023869,-10.874107360839844,0,0,29.15428733825684,1,1,760,800,5.880147,0,0.0014662763569504,0.0014662763569504,0.0,0,0.0014662763569504
1778788398.619338,71804600,0,0.0091094793751835,0.0088210850954055,0.0015440769493579,-0.0076362378895282,0.0055941510945558,-10.84228229522705,0,0,29.156400680541992,1,1,1000,1000,5.920131,0,0.0015440769493579,0.0015440769493579,0.0,0,0.0015440769493579
1778788398.619338,71804600,1,0.0089408699423074,0.0088757555931806,0.0015454089734703,-0.0067721884697675,0.005084179341793,-10.841875076293944,0,0,29.156400680541992,1,1,760,800,5.920131,0,0.0015454089734703,0.0015454089734703,0.0,0,0.0015454089734703
1778788398.659322,71844584,0,0.0096455262973904,0.0072611365467309,0.0016427910886704,-0.0064522670581936,0.0062608555890619,-10.851972579956056,0,0,29.15851211547852,1,1,1000,1000,5.960115,0,0.0016427910886704,0.0016427910886704,0.0,0,0.0016427910886704
1778788398.659322,71844584,1,0.0093042347580194,0.0072815157473087,0.0016160027589648,-0.0078769419342279,0.0042141783051192,-10.850992202758787,0,0,29.15851211547852,1,1,760,800,5.960115,0,0.0016160027589648,0.0016160027589648,0.0,0,0.0016160027589648
1778788398.699306,71884568,0,0.0089840162545442,0.007449469063431,0.0015436193207278,-0.007977575995028,0.0042391708120703,-10.819243431091309,0,0,29.160625457763672,1,1,1000,1000,6.000099,0,0.0015436193207278,0.0015436193207278,0.0,0,0.0015436193207278
1778788398.699306,71884568,1,0.0088757202029228,0.0076770721934735,0.0015974553534761,-0.0058066002093255,0.0037332065403461,-10.819829940795898,0,0,29.160625457763672,1,1,760,800,6.000099,0,0.0015974553534761,0.0015974553534761,0.0,0,0.0015974553534761
1778788398.73929,71924552,0,0.0042886780574917,0.0048821121454238,0.0015029484638944,-0.0061843297444283,0.0043122321367263,-10.814884185791016,0,0,29.162736892700195,1,1,1000,1000,6.040083,0,0.0015029484638944,0.0015029484638944,0.0,0,0.0015029484638944
1778788398.73929,71924552,1,0.0041756173595786,0.0049476912245154,0.0013983080862089,-0.0069916457869112,0.0060424390248954,-10.815133094787598,0,0,29.162736892700195,1,1,760,800,6.040083,0,0.0013983080862089,0.0013983080862089,0.0,0,0.0013983080862089
1778788398.779274,71964536,0,0.0077302092686295,0.0065818848088383,0.0015712168533354,-0.0055747292935848,0.0054317219182848,-10.810970306396484,0,0,29.16484832763672,1,1,1000,1000,6.080067,0,0.0015712168533354,0.0015712168533354,0.0,0,0.0015712168533354
1778788398.779274,71964536,1,0.0079256929457187,0.0064639220945537,0.0015147598460316,-0.0061336923390626,0.0022294984664767,-10.808605194091797,0,0,29.16484832763672,1,1,760,800,6.080067,0,0.0015147598460316,0.0015147598460316,0.0,0,0.0015147598460316
1778788398.819258,72004520,0,0.0027560140006244,0.0023825296666473,0.0016131622251123,-0.0058117918670177,0.0053986343555152,-10.80640697479248,0,0,29.16695976257324,1,1,1000,1000,6.120051,0,0.0016131622251123,0.0016131622251123,0.0,0,0.0016131622251123
1778788398.819258,72004520,1,0.0026430068537592,0.00229381932877,0.0015969080850481,-0.0076293777674436,0.0050001298077404,-10.804527282714844,0,0,29.16695976257324,1,1,760,800,6.120051,0,0.0015969080850481,0.0015969080850481,0.0,0,0.0015969080850481
1778788398.859242,72044504,0,0.0056211045011878,0.0047407015226781,0.0014819378266111,-0.006516745314002,0.0055102533660829,-10.810632705688477,0,0,29.16907119750977,1,1,1000,1000,6.160035,0,0.0014819378266111,0.0014819378266111,0.0,0,0.0014819378266111
1778788398.859242,72044504,1,0.0055099790915846,0.0046670720912516,0.0015327450819313,-0.0069906115531921,0.0030011085327714,-10.807398796081545,0,0,29.16907119750977,1,1,760,800,6.160035,0,0.0015327450819313,0.0015327450819313,0.0,0,0.0015327450819313
1778788398.899226,72084488,0,0.0036260150372982,0.0027846237644553,0.0014951174380257,-0.0055936928838491,0.0053962739184498,-10.818260192871094,0,0,29.171180725097656,1,1,1000,1000,6.200019,0,0.0014951174380257,0.0014951174380257,0.0,0,0.0014951174380257
1778788398.899226,72084488,1,0.0035642748698592,0.002680409932509,0.0016391006065532,-0.0060764155350625,0.0044890763238072,-10.817816734313965,0,0,29.171180725097656,1,1,760,800,6.200019,0,0.0016391006065532,0.0016391006065532,0.0,0,0.0016391006065532
1778788398.93921,72124472,0,0.004824829287827,0.0046895584091544,0.0014652437530457,-0.0064523173496127,0.00474264472723,-10.823712348937988,0,0,29.17329216003418,1,1,1000,1000,6.240003,0,0.0014652437530457,0.0014652437530457,0.0,0,0.0014652437530457
1778788398.93921,72124472,1,0.0049931360408663,0.0047890394926071,0.0015355289215222,-0.0058938176371157,0.0049825925379991,-10.823020935058594,0,0,29.17329216003418,1,1,760,800,6.240003,0,0.0015355289215222,0.0015355289215222,0.0,0,0.0015355289215222
1778788398.9800267,72165289,0,0.002205085940659,0.0014618220739066,0.0014822341036051,-0.0072660259902477,0.0054108519107103,-10.833250045776367,0,0,29.17545318603516,1,1,1000,1000,6.28082,0,0.0014822341036051,0.0014822341036051,0.0,0,0.0014822341036051
1778788398.9800267,72165289,1,0.0022025676444172,0.0012835963862016,0.0014693224802613,-0.0064562764018774,0.0024444023147225,-10.829826354980469,0,0,29.17540168762207,1,1,760,800,6.28082,0,0.0014693224802613,0.0014693224802613,0.0,0,0.0014693224802613
1778788399.0200107,72205273,0,0.0041159023530781,0.0020681710448116,0.0014908586163073,-0.006558371707797,0.0038275008555501,-10.84568214416504,0,0,29.17756462097168,1,1,1000,1000,6.320804,0,0.0014908586163073,0.0014908586163073,0.0,0,0.0014908586163073
1778788399.0200107,72205273,1,0.0039904513396322,0.0020011095330119,0.0015093999681994,-0.005507905036211,0.0026709504891186,-10.847898483276367,0,0,29.17751121520996,1,1,760,800,6.320804,0,0.0015093999681994,0.0015093999681994,0.0,0,0.0015093999681994
1778788399.0599947,72245257,0,0.0008266748627647,0.0047897240146994,0.0014065752038732,-0.0055159195326268,0.0037490520626306,-10.861384391784668,0,0,29.179672241210938,1,1,1000,1000,6.360788,0,0.0014065752038732,0.0014065752038732,0.0,0,0.0014065752038732
1778788399.0599947,72245257,1,0.0008591022342443,0.0048393895849585,0.001333232037723,-0.0062063308432698,0.0045567201450467,-10.861709594726562,0,0,29.17962074279785,1,1,760,800,6.360788,0,0.001333232037723,0.001333232037723,0.0,0,0.001333232037723
1778788399.0999787,72285241,0,0.0009763589478097,0.0034560104832053,0.0014519344549626,-0.0060790223069489,0.0047789188101887,-10.852849006652832,0,0,29.18178367614746,1,1,1000,1000,6.400772,0,0.0014519344549626,0.0014519344549626,0.0,0,0.0014519344549626
1778788399.0999787,72285241,1,0.0010061062639579,0.0036226820666342,0.0015495392726734,-0.006483654025942,0.0037862053140997,-10.853104591369627,0,0,29.18172836303711,1,1,760,800,6.400772,0,0.0015495392726734,0.0015495392726734,0.0,0,0.0015495392726734
1778788399.1399632,72325225,0,0.0018976302817463,0.0012154696742072,0.0014593849191442,-0.0077709532342851,0.0045088469050824,-10.872310638427734,0,0,29.18383979797364,1,1,1000,1000,6.440756,0,0.0014593849191442,0.0014593849191442,0.0,0,0.0014593849191442
1778788399.1399632,72325225,1,0.0020376690663397,0.0013742345618084,0.0015680040232837,-0.0034813026431947,0.0059722308069467,-10.874381065368652,0,0,29.18383979797364,1,1,760,800,6.440756,0,0.0015680040232837,0.0015680040232837,0.0,0,0.0015680040232837
1778788399.1799471,72365209,0,0.0018620227929204,0.0013763289898633,0.0014050781028345,-0.0066326479427516,0.003188716713339,-10.859260559082031,0,0,29.18594741821289,1,1,1000,1000,6.48074,0,0.0014050781028345,0.0014050781028345,0.0,0,0.0014050781028345
1778788399.1799471,72365209,1,0.002021106891334,0.0016045924276113,0.0012355117360129,-0.0066254534758627,0.0051632071845233,-10.860939979553224,0,0,29.18594741821289,1,1,760,800,6.48074,0,0.0012355117360129,0.0012355117360129,0.0,0,0.0012355117360129
1778788399.2199311,72405193,0,0.0034321076236665,0.0032206187024712,0.0014247993240132,-0.0060970839112997,0.0047240070998668,-10.876206398010254,0,0,29.18805694580078,1,1,1000,1000,6.520724,0,0.0014247993240132,0.0014247993240132,0.0,0,0.0014247993240132
1778788399.2199311,72405193,1,0.0033662833739072,0.0031386343762278,0.0014094981597736,-0.0060178763233125,0.0042675761505961,-10.876226425170898,0,0,29.18805694580078,1,1,760,800,6.520724,0,0.0014094981597736,0.0014094981597736,0.0,0,0.0014094981597736
1778788399.259915,72445177,0,0.0028886354994028,0.0028288343455642,0.0014342556241899,-0.0057779629714787,0.0029971874319016,-10.8607816696167,0,0,29.19016456604004,1,1,1000,1000,6.560708,0,0.0014342556241899,0.0014342556241899,0.0,0,0.0014342556241899
1778788399.259915,72445177,1,0.0029561736155301,0.0028092637658119,0.0015360058750957,-0.0047931289300322,0.0029303794726729,-10.861989974975586,0,0,29.19016456604004,1,1,760,800,6.560708,0,0.0015360058750957,0.0015360058750957,0.0,0,0.0015360058750957
1778788399.299899,72485161,0,3.042299067601561e-05,-0.000206727112527,0.0013738540001213,-0.0057081314735114,0.0034778944682329,-10.87643051147461,0,0,29.192272186279297,1,1,1000,1000,6.600692,0,0.0013738540001213,0.0013738540001213,0.0,0,0.0013738540001213
1778788399.299899,72485161,1,0.0001341848546871,-0.000276961014606,0.0014791029971092,-0.0084776822477579,0.0026526527944952,-10.873526573181152,0,0,29.192272186279297,1,1,760,800,6.600692,0,0.0014791029971092,0.0014791029971092,0.0,0,0.0014791029971092
1778788399.339883,72525145,0,0.0002214261039625,4.928434691464645e-07,0.001353359199129,-0.0041526090353727,0.0036465066950768,-10.853641510009766,0,0,29.194379806518555,1,1,1000,1000,6.640676,0,0.001353359199129,0.001353359199129,0.0,0,0.001353359199129
1778788399.339883,72525145,1,0.0003323178971186,3.727599687408656e-05,0.0014085073489695,-0.0043988777324557,0.0049382504075765,-10.855661392211914,0,0,29.194379806518555,1,1,760,800,6.640676,0,0.0014085073489695,0.0014085073489695,0.0,0,0.0014085073489695
1778788399.379867,72565129,0,0.0032583174761384,0.0030668803956359,0.0014187477063387,-0.0055564744397997,0.0035379123874008,-10.8721342086792,0,0,29.19648742675781,1,1,1000,1000,6.68066,0,0.0014187477063387,0.0014187477063387,0.0,0,0.0014187477063387
1778788399.379867,72565129,1,0.0034282931592315,0.0030091647058725,0.0012719130609184,-0.0023967653978616,0.0043245502747595,-10.872011184692385,0,0,29.19648742675781,1,1,760,800,6.68066,0,0.0012719130609184,0.0012719130609184,0.0,0,0.0012719130609184
1778788399.419851,72605113,0,0.0029083476401865,0.0028397347778081,0.0013764570467174,-0.0048515140078961,0.0031370539218187,-10.849359512329102,0,0,29.19859313964844,1,1,1000,1000,6.720644,0,0.0013764570467174,0.0013764570467174,0.0,0,0.0013764570467174
1778788399.419851,72605113,1,0.002870445838198,0.0026878926437348,0.0013623666018247,-0.0054741967469453,0.0027155904099345,-10.849573135375977,0,0,29.19859313964844,1,1,760,800,6.720644,0,0.0013623666018247,0.0013623666018247,0.0,0,0.0013623666018247
1778788399.459835,72645097,0,0.0015028847847133,-8.014020568225533e-05,0.0013519185595214,-0.0044002239592373,0.0036979981232434,-10.849096298217772,0,0,29.20070075988769,1,1,1000,1000,6.760628,0,0.0013519185595214,0.0013519185595214,0.0,0,0.0013519185595214
1778788399.459835,72645097,1,0.0015642356593161,-0.0001866207894636,0.0014485041610896,-0.0065293232910335,0.0009709680452942,-10.84909439086914,0,0,29.20070075988769,1,1,760,800,6.760628,0,0.0014485041610896,0.0014485041610896,0.0,0,0.0014485041610896
1778788399.499819,72685081,0,0.0009460975416004,-0.0017957894597202,0.001534967450425,-0.004745511803776,0.0024469019845128,-10.77799129486084,0,0,29.20280647277832,1,1,1000,1000,6.800612,0,0.001534967450425,0.001534967450425,0.0,0,0.001534967450425
1778788399.499819,72685081,1,0.0011977260001003,-0.001755483681336,0.001368460827507,-0.0067635672166943,0.0041029094718396,-10.78061866760254,0,0,29.20280647277832,1,1,760,800,6.800612,0,0.001368460827507,0.001368460827507,0.0,0,0.001368460827507
1778788399.539803,72725065,0,-0.0006253638421185,-0.0008222393225878,0.0015374858630821,-0.0049856398254632,0.0031754828523844,-10.670435905456545,0,0,29.204965591430664,1,1,1000,1000,6.840596,0,0.0015374858630821,0.0015374858630821,0.0,0,0.0015374858630821
1778788399.539803,72725065,1,-0.0007239232072606,-0.0008966530440375,0.0015331999165937,-0.0061865854077041,0.0006288880249485,-10.672903060913086,0,0,29.204965591430664,1,1,760,800,6.840596,0,0.0015331999165937,0.0015331999165937,0.0,0,0.0015331999165937
1778788399.579787,72765049,0,-0.0004571634053718,-0.0006020678556524,0.0016488953260704,-0.0041079395450651,0.002160076983273,-10.564550399780272,0,0,29.20707321166992,1,1,1000,1000,6.88058,0,0.0016488953260704,0.0016488953260704,0.0,0,0.0016488953260704
1778788399.579787,72765049,1,-0.000576731050387,-0.0006263776449486,0.0015226912219077,-0.0014247973449528,0.0037078359164297,-10.565478324890137,0,0,29.20707321166992,1,1,760,800,6.88058,0,0.0015226912219077,0.0015226912219077,0.0,0,0.0015226912219077
1778788399.619771,72805033,0,-0.0005630770465359,-0.0006231309380382,0.0016611961182206,-0.0053116776980459,0.0022310591302812,-10.466315269470217,0,0,29.20917701721192,1,1,1000,1000,6.920564,0,0.0016611961182206,0.0016611961182206,0.0,0,0.0016611961182206
1778788399.619771,72805033,1,-0.0004376244323793,-0.0006591046694666,0.0015767711447551,-0.004806688055396,0.003544698935002,-10.464925765991213,0,0,29.20917701721192,1,1,760,800,6.920564,0,0.0015767711447551,0.0015767711447551,0.0,0,0.0015767711447551
1778788399.6597548,72845017,0,-0.0008853954495862,-0.0008479767129756,0.0015949907246977,-0.0030382967088371,0.001766855828464,-10.37004280090332,0,0,29.21128273010254,1,1,1000,1000,6.960548,0,0.0015949907246977,0.0015949907246977,0.0,0,0.0015949907246977
1778788399.6597548,72845017,1,-0.0011096886591985,-0.0009002611041069,0.0015279103536158,-0.003217500867322,0.0014272170374169,-10.370807647705078,0,0,29.21128273010254,1,1,760,800,6.960548,0,0.0015279103536158,0.0015279103536158,0.0,0,0.0015279103536158
1778788399.6997387,72885001,0,-0.0003069203812628,-0.0002792704617604,0.0015183093491941,-0.004903273191303,0.0015041793230921,-10.287227630615234,0,0,29.213388442993164,1,1,1000,1000,7.000532,0,0.0015183093491941,0.0015183093491941,0.0,0,0.0015183093491941
1778788399.6997387,72885001,1,-0.0003634916502051,-0.0001367033255519,0.0016423845663666,-0.0064390473999083,0.0009867646731436,-10.290345191955566,0,0,29.213388442993164,1,1,760,800,7.000532,0,0.0016423845663666,0.0016423845663666,0.0,0,0.0016423845663666
1778788399.7397227,72924985,0,-7.787776848999783e-05,-0.0001572642795508,0.0015016832621768,-0.0037714161444455,0.0011782017536461,-10.214751243591309,0,0,29.21543884277344,1,1,1000,1000,7.040516,0,0.0015016832621768,0.0015016832621768,0.0,0,0.0015016832621768
1778788399.7397227,72924985,1,-0.0001030331550282,-0.0001093741302611,0.0014034241903573,-0.0028916033916175,0.0004567300202324,-10.21400547027588,0,0,29.21543884277344,1,1,760,800,7.040516,0,0.0014034241903573,0.0014034241903573,0.0,0,0.0014034241903573
1778788399.7797067,72964969,0,0.0001561675744596,0.0008279314497485,0.0014243952464312,-0.0032609906047582,0.0014631078811362,-10.151638984680176,0,0,29.217544555664062,1,1,1000,1000,7.0805,0,0.0014243952464312,0.0014243952464312,0.0,0,0.0014243952464312
1778788399.7797067,72964969,1,0.0001583980483701,0.0006619025953114,0.0014841736992821,-0.0067682834342122,0.001678048283793,-10.151769638061523,0,0,29.217544555664062,1,1,760,800,7.0805,0,0.0014841736992821,0.0014841736992821,0.0,0,0.0014841736992821
1778788399.8196907,73004953,0,-0.0007860952173359,0.0008742407080717,0.0013703783042728,-0.0030656391754746,0.0022468252573162,-10.08541774749756,0,0,29.21964836120605,1,1,1000,1000,7.120484,0,0.0013703783042728,0.0013703783042728,0.0,0,0.0013703783042728
1778788399.8196907,73004953,1,-0.0008448530570603,0.0008201927994377,0.0015068906359374,-0.0022750729694962,0.0014733794378116,-10.087054252624512,0,0,29.21964836120605,1,1,760,800,7.120484,0,0.0015068906359374,0.0015068906359374,0.0,0,0.0015068906359374
1778788399.8596747,73044937,0,0.0006205087993294,0.0005621374002657,0.0013099600328132,-0.0032882669474929,0.00053707358893,-10.033100128173828,0,0,29.221752166748047,1,1,1000,1000,7.160468,0,0.0013099600328132,0.0013099600328132,0.0,0,0.0013099600328132
1778788399.8596747,73044937,1,0.0006865749601274,0.0006085116183385,0.0012063366593793,-0.0061939735896885,0.0024063759483397,-10.033639907836914,0,0,29.221752166748047,1,1,760,800,7.160468,0,0.0012063366593793,0.0012063366593793,0.0,0,0.0012063366593793
1778788399.899659,73084921,0,0.0021328800357878,-5.902680641156621e-05,0.0012451817747205,-0.0029012272134423,0.0020937249064445,-9.981940269470217,0,0,29.22385597229004,1,1,1000,1000,7.200452,0,0.0012451817747205,0.0012451817747205,0.0,0,0.0012451817747205
1778788399.899659,73084921,1,0.002136617898941,-0.0002298911858815,0.0011554453521966,-0.0046283998526632,0.002279367763549,-9.980194091796877,0,0,29.22385597229004,1,1,760,800,7.200452,0,0.0011554453521966,0.0011554453521966,0.0,0,0.0011554453521966
1778788399.9396431,73124905,0,-0.001377084874548,0.0027491843793541,0.0011432174360379,-0.003122339490801,0.0019074885640293,-9.939495086669922,0,0,29.22595977783203,1,1,1000,1000,7.240436,0,0.0011432174360379,0.0011432174360379,0.0,0,0.0011432174360379
1778788399.9396431,73124905,1,-0.0013387250946834,0.0028359973803162,0.0011099090334028,-0.0047051273286342,0.0003201188810635,-9.94137954711914,0,0,29.22595977783203,1,1,760,800,7.240436,0,0.0011099090334028,0.0011099090334028,0.0,0,0.0011099090334028
1778788399.9796271,73164889,0,0.0024022106081247,-0.0008680395549163,0.001100423396565,-0.0031809643842279,0.0014172510709613,-9.90015983581543,0,0,29.22806167602539,1,1,1000,1000,7.28042,0,0.001100423396565,0.001100423396565,0.0,0,0.001100423396565
1778788399.9796271,73164889,1,0.0024060099385678,-0.0009478983120061,0.0010918693151324,-0.0033463207073509,-0.0010224604047834,-9.901296615600586,0,0,29.22806167602539,1,1,760,800,7.28042,0,0.0010918693151324,0.0010918693151324,0.0,0,0.0010918693151324
1778788400.0196111,73204873,0,-0.0016385139897465,0.0030934999231249,0.0009512836113572,-0.003648531390354,0.0007526397239416,-9.865437507629396,0,0,29.230165481567383,1,1,1000,1000,7.320404,0,0.0009512836113572,0.0009512836113572,0.0,0,0.0009512836113572
1778788400.0196111,73204873,1,-0.0016581792151555,0.0031492609996348,0.0009337196825072,-0.0036497840192168,-0.0004904636298306,-9.86520290374756,0,0,29.230165481567383,1,1,760,800,7.320404,0,0.0009337196825072,0.0009337196825072,0.0,0,0.0009337196825072
1778788400.059595,73244857,0,0.0025085182860493,-9.715173655422404e-05,0.0008342636283487,-0.0038424865342676,0.0008614733233116,-9.835657119750977,0,0,29.232267379760746,1,1,1000,1000,7.360388,0,0.0008342636283487,0.0008342636283487,0.0,0,0.0008342636283487
1778788400.059595,73244857,1,0.0023845918476581,0.000117312738439,0.0010245122248306,-0.0048074154183268,0.0019420392345637,-9.834553718566896,0,0,29.232267379760746,1,1,760,800,7.360388,0,0.0010245122248306,0.0010245122248306,0.0,0,0.0010245122248306
1778788400.099579,73284841,0,0.0005445280112326,-0.0007099019712768,0.0006870334036648,-0.0020472714677453,0.0001540973171358,-9.819129943847656,0,0,29.23437118530273,1,1,1000,1000,7.400372,0,0.0006870334036648,0.0006870334036648,0.0,0,0.0006870334036648
1778788400.099579,73284841,1,0.0006467824568971,-0.0007475619786418,0.0008679212769493,-0.004711830522865,0.0006810741615481,-9.819640159606934,0,0,29.23437118530273,1,1,760,800,7.400372,0,0.0008679212769493,0.0008679212769493,0.0,0,0.0008679212769493
1778788400.139563,73324825,0,-0.0003908049548044,0.0022439388558268,0.0006211877334862,-0.0031818249262869,0.0008466893341392,-9.796571731567385,0,0,29.23647117614746,1,1,1000,1000,7.440356,0,0.0006211877334862,0.0006211877334862,0.0,0,0.0006211877334862
1778788400.139563,73324825,1,-0.0004811048856936,0.0022050351835787,0.0007859584875404,-0.0044521745294332,0.0004343918408267,-9.795430183410645,0,0,29.23647117614746,1,1,760,800,7.440356,0,0.0007859584875404,0.0007859584875404,0.0,0,0.0007859584875404
1778788400.179547,73364809,0,0.0027961744926869,0.0011629954678937,0.0002598605351522,-0.0029312577098608,0.0011120995040982,-9.774785041809082,0,0,29.23857307434082,1,1,1000,1000,7.48034,0,0.0002598605351522,0.0002598605351522,0.0,0,0.0002598605351522
1778788400.179547,73364809,1,0.0027398685924708,0.0011007359717041,0.0004547928110696,-0.0007104981923475,0.0014751101844012,-9.774139404296877,0,0,29.23857307434082,1,1,760,800,7.48034,0,0.0004547928110696,0.0004547928110696,0.0,0,0.0004547928110696
1778788400.219531,73404793,0,0.0022438007872551,0.0001330786326434,0.0003457767597865,-0.0027629765681922,0.0005633488763123,-9.763038635253906,0,0,29.24067497253418,1,1,1000,1000,7.520324,0,0.0003457767597865,0.0003457767597865,0.0,0,0.0003457767597865
1778788400.219531,73404793,1,0.0020608238410204,0.0002455460489727,0.0003573384019546,0.0003839004202745,-0.0015338740777224,-9.762439727783203,0,0,29.24067497253418,1,1,760,800,7.520324,0,0.0003573384019546,0.0003573384019546,0.0,0,0.0003573384019546
1778788400.259515,73444777,0,0.0016303998418152,0.0004808410303667,3.41798659064807e-05,-0.0039896913804113,0.0003746179572772,-9.74862003326416,0,0,29.24277687072754,1,1,1000,1000,7.560308,0,3.41798659064807e-05,3.41798659064807e-05,0.0,0,3.41798659064807e-05
1778788400.259515,73444777,1,0.00132121599745,0.0002843395341187,0.0001633061474421,-0.0014277814188972,0.002678622258827,-9.74835968017578,0,0,29.24277687072754,1,1,760,800,7.560308,0,0.0001633061474421,0.0001633061474421,0.0,0,0.0001633061474421
1778788400.299499,73484761,0,0.0021588844247162,1.0938707418972626e-05,-0.0001694996317382,-0.0014131786301732,0.0005025470163673,-9.738407135009766,0,0,29.244876861572266,1,1,1000,1000,7.600292,0,-0.0001694996317382,-0.0001694996317382,0.0,0,-0.0001694996317382
1778788400.299499,73484761,1,0.0020472239702939,0.0001666254829615,-0.0001834081340348,-0.001848256913945,0.0007280937861651,-9.737210273742676,0,0,29.244876861572266,1,1,760,800,7.600292,0,-0.0001834081340348,-0.0001834081340348,0.0,0,-0.0001834081340348
1778788400.339483,73524745,0,0.001986181596294,0.0030835508368909,-0.0001949089346453,-0.0023016785271465,-0.0003936600405722,-9.7332763671875,0,0,29.246978759765625,1,1,1000,1000,7.640276,0,-0.0001949089346453,-0.0001949089346453,0.0,0,-0.0001949089346453
1778788400.339483,73524745,1,0.0020006038248538,0.0030803154222667,-0.0002358944620937,-0.0063649141229689,0.0008945134468376,-9.732280731201172,0,0,29.246978759765625,1,1,760,800,7.640276,0,-0.0002358944620937,-0.0002358944620937,0.0,0,-0.0002358944620937
1778788400.379467,73564729,0,0.0007459316402673,0.0027890964411199,-0.0001410881814081,-0.0015069959918037,-0.0004895607125945,-9.728482246398926,0,0,29.24907684326172,1,1,1000,1000,7.68026,0,-0.0001410881814081,-0.0001410881814081,0.0,0,-0.0001410881814081
1778788400.379467,73564729,1,0.000562798581086,0.0027675449382513,-0.0001342035393463,-0.0020350294653326,-0.0013722664443776,-9.72698211669922,0,0,29.24907684326172,1,1,760,800,7.68026,0,-0.0001342035393463,-0.0001342035393463,0.0,0,-0.0001342035393463
1778788400.419451,73604713,0,-0.0011673920089378,0.0014931997284293,-0.0004663776489906,-0.0036095199175179,0.0001017993636196,-9.719680786132812,0,0,29.251176834106445,1,1,1000,1000,7.720244,0,-0.0004663776489906,-0.0004663776489906,0.0,0,-0.0004663776489906
1778788400.419451,73604713,1,-0.0011046543950214,0.001542700571008,-0.0004969470901414,-0.0042483019642531,-0.0006100994651205,-9.722156524658203,0,0,29.251176834106445,1,1,760,800,7.720244,0,-0.0004969470901414,-0.0004969470901414,0.0,0,-0.0004969470901414
1778788400.4594347,73644697,0,0.0011531204218044,0.0025605799164623,-0.0007981739472597,-0.0031833858229219,-0.00017041049432,-9.714116096496582,0,0,29.25327682495117,1,1,1000,1000,7.760228,0,-0.0007981739472597,-0.0007981739472597,0.0,0,-0.0007981739472597
1778788400.4594347,73644697,1,0.0013188078301027,0.0027473086956888,-0.0007267719483934,-0.0013027375098317,0.0015159810427576,-9.717498779296877,0,0,29.25327682495117,1,1,760,800,7.760228,0,-0.0007267719483934,-0.0007267719483934,0.0,0,-0.0007267719483934
1778788400.4994187,73684681,0,0.0002190458180848,0.0023635982070118,-0.0010886616073548,-0.0018345465650781,0.0005202722968533,-9.720271110534668,0,0,29.2553768157959,1,1,1000,1000,7.800212,0,-0.0010886616073548,-0.0010886616073548,0.0,0,-0.0010886616073548
1778788400.4994187,73684681,1,0.0004030517302453,0.0023617791011929,-0.0010955058969557,-0.0042276326566934,0.0033697164617478,-9.722864151000977,0,0,29.2553768157959,1,1,760,800,7.800212,0,-0.0010955058969557,-0.0010955058969557,0.0,0,-0.0010955058969557
1778788400.5394027,73724665,0,-0.0006592033314518,0.002909482223913,-0.0010404072236269,-0.0029188496991991,0.0005706891533918,-9.727375030517578,0,0,29.257476806640625,1,1,1000,1000,7.840196,0,-0.0010404072236269,-0.0010404072236269,0.0,0,-0.0010404072236269
1778788400.5394027,73724665,1,-0.000693573965691,0.0030329502187669,-0.0010769458021968,-0.002808473072946,0.0006235606851987,-9.72671127319336,0,0,29.257476806640625,1,1,760,800,7.840196,0,-0.0010769458021968,-0.0010769458021968,0.0,0,-0.0010769458021968
1778788400.5793867,73764649,0,-0.0007168259471654,0.0027548125945031,-0.000982669997029,-0.0017301697516813,-0.0014970146585255,-9.726130485534668,0,0,29.25957489013672,1,1,1000,1000,7.88018,0,-0.000982669997029,-0.000982669997029,0.0,0,-0.000982669997029
1778788400.5793867,73764649,1,-0.0006948350928723,0.0027865127194672,-0.0009474683320149,-0.0042064413428306,0.0018043017480522,-9.726876258850098,0,0,29.25957489013672,1,1,760,800,7.88018,0,-0.0009474683320149,-0.0009474683320149,0.0,0,-0.0009474683320149
1778788400.6193707,73804633,0,-0.001436278107576,0.001584552694112,-0.0008433842449449,-0.0020485688000917,-0.0005894770147278,-9.728479385375977,0,0,29.26167297363281,1,1,1000,1000,7.920164,0,-0.0008433842449449,-0.0008433842449449,0.0,0,-0.0008433842449449
1778788400.6193707,73804633,1,-0.001793460920453,0.0014653131365776,-0.0008289116667583,-0.0035619051195681,-0.001063575851731,-9.72680377960205,0,0,29.26167297363281,1,1,760,800,7.920164,0,-0.0008289116667583,-0.0008289116667583,0.0,0,-0.0008289116667583
1778788400.6593547,73844617,0,-0.0025810543447732,0.0001343920303042,-0.0007467227987945,-0.0015302175888791,-0.0008760897908359,-9.729856491088867,0,0,29.263771057128903,1,1,1000,1000,7.960148,0,-0.0007467227987945,-0.0007467227987945,0.0,0,-0.0007467227987945
1778788400.6593547,73844617,1,-0.0026167083997279,-0.0002664475468918,-0.0007752151577733,-0.0030000880360603,0.0006026937626302,-9.731464385986328,0,0,29.263771057128903,1,1,760,800,7.960148,0,-0.0007752151577733,-0.0007752151577733,0.0,0,-0.0007752151577733
1778788400.6993392,73884601,0,-0.0016419140156358,-0.0003929791273549,-0.000634538475424,-0.0020675053820014,-0.0009485743939876,-9.734823226928713,0,0,29.265869140625,1,1,1000,1000,8.000132,0,-0.000634538475424,-0.000634538475424,0.0,0,-0.000634538475424
1778788400.6993392,73884601,1,-0.0016558507923036,-0.0001245135063072,-0.0004563284455798,-0.0023451820015907,0.0002314212615601,-9.734110832214355,0,0,29.265869140625,1,1,760,800,8.000132,0,-0.0004563284455798,-0.0004563284455798,0.0,0,-0.0004563284455798
1778788400.7393231,73924585,0,-0.0001486865949118,-0.0014211277011781,-0.0005673755076713,-0.0024087443016469,-0.000501116272062,-9.737281799316406,0,0,29.267967224121094,1,1,1000,1000,8.040116,0,-0.0005673755076713,-0.0005673755076713,0.0,0,-0.0005673755076713
1778788400.7393231,73924585,1,3.7716781662311405e-05,-0.0015070654917508,-0.0007083165692165,-0.0003806317981798,-0.000869094976224,-9.73761749267578,0,0,29.267967224121094,1,1,760,800,8.040116,0,-0.0007083165692165,-0.0007083165692165,0.0,0,-0.0007083165692165
1778788400.7793071,73964569,0,0.0012194002047181,-0.0001595838402863,-0.0004661419661715,-0.0022905729711055,-0.0006263773539103,-9.746330261230469,0,0,29.270065307617188,1,1,1000,1000,8.0801,0,-0.0004661419661715,-0.0004661419661715,0.0,0,-0.0004661419661715
1778788400.7793071,73964569,1,0.0010921049397438,-0.0002190927334595,-0.000488699239213,-0.0026503652334213,0.0009323814301751,-9.743902206420898,0,0,29.270065307617188,1,1,760,800,8.0801,0,-0.000488699239213,-0.000488699239213,0.0,0,-0.000488699239213
1778788400.819291,74004553,0,-0.0010526279220357,-0.000693209352903,-0.0004198271199129,-0.0019504835363477,6.023248715791851e-05,-9.755075454711914,0,0,29.27216148376465,1,1,1000,1000,8.120084,0,-0.0004198271199129,-0.0004198271199129,0.0,0,-0.0004198271199129
1778788400.819291,74004553,1,-0.0010028921533375,-0.0006477674469351,-0.0003953389823436,-0.0002564745373092,-0.0017972852801904,-9.753564834594728,0,0,29.27216148376465,1,1,760,800,8.120084,0,-0.0003953389823436,-0.0003953389823436,0.0,0,-0.0003953389823436
1778788400.859275,74044537,0,-0.0007708391058258,-0.0005786099354736,-0.0003031771630048,-0.0018169935792684,-0.0011343749938532,-9.754616737365724,0,0,29.27425765991211,1,1,1000,1000,8.160068,0,-0.0003031771630048,-0.0003031771630048,0.0,0,-0.0003031771630048
1778788400.859275,74044537,1,-0.0007786941132508,-0.0004115428309887,-0.0001636671368032,-0.002572311554104,-0.0027039661072194,-9.755005836486816,0,0,29.27425765991211,1,1,760,800,8.160068,0,-0.0001636671368032,-0.0001636671368032,0.0,0,-0.0001636671368032
1778788400.899259,74084521,0,-0.0005233034025877,-0.0003282340476289,-0.0002103308361256,-0.0017114651855081,-0.0004253502993378,-9.75600242614746,0,0,29.276355743408203,1,1,1000,1000,8.200052,0,-0.0002103308361256,-0.0002103308361256,0.0,0,-0.0002103308361256
1778788400.899259,74084521,1,-0.0005508593749254,-0.0005525076994672,-0.000111178975203,-0.0015967155341058,0.0017810043646022,-9.757792472839355,0,0,29.276355743408203,1,1,760,800,8.200052,0,-0.000111178975203,-0.000111178975203,0.0,0,-0.000111178975203
1778788400.939243,74124505,0,-0.0004330680530983,-0.0002456232905387,-4.755143163492903e-05,-0.0024772086180746,-0.0010132557945325,-9.757457733154297,0,0,29.278451919555664,1,1,1000,1000,8.240036,0,-4.755143163492903e-05,-4.755143163492903e-05,0.0,0,-4.755143163492903e-05
1778788400.939243,74124505,1,-0.0004956241464242,-0.0002654406125657,4.915029421681538e-05,0.0006808758480474,0.0001347982761217,-9.760597229003906,0,0,29.278451919555664,1,1,760,800,8.240036,0,4.915029421681538e-05,4.915029421681538e-05,0.0,0,4.915029421681538e-05
1778788400.979227,74164489,0,-0.0002214233099948,-0.0001099125947803,-5.253016752249096e-06,-0.0010425625368952,-0.0012754390481859,-9.758537292480469,0,0,29.280548095703125,1,1,1000,1000,8.28002,0,-5.253016752249096e-06,-5.253016752249096e-06,0.0,0,-5.253016752249096e-06
1778788400.979227,74164489,1,-0.0003163656801916,9.109346865443511e-05,-0.0002129647473338,-0.001132887089625,-0.0014007727149873,-9.75948715209961,0,0,29.280548095703125,1,1,760,800,8.28002,0,-0.0002129647473338,-0.0002129647473338,0.0,0,-0.0002129647473338
1778788401.019211,74204473,0,0.0009197243489325,0.000705421087332,-0.0001243063015863,-0.0010827189544215,-0.0013347342610359,-9.77139377593994,0,0,29.282644271850582,1,1,1000,1000,8.320004,0,-0.0001243063015863,-0.0001243063015863,0.0,0,-0.0001243063015863
1778788401.019211,74204473,1,0.000776927685365,0.0009801932610571,-0.0001093269165721,0.0001600646501174,-0.0019087640102952,-9.770645141601562,0,0,29.282644271850582,1,1,760,800,8.320004,0,-0.0001093269165721,-0.0001093269165721,0.0,0,-0.0001093269165721
1778788401.060028,74245290,0,0.0037270369939506,0.0021209751721471,-0.0001918958150781,-0.0007121436647139,-0.0019577387720346,-9.779173851013184,0,0,29.284791946411133,1,1,1000,1000,8.360821,0,-0.0001918958150781,-0.0001918958150781,0.0,0,-0.0001918958150781
1778788401.060028,74245290,1,0.0035095680505037,0.0023294994607567,-0.0002681520709302,-0.0018970805685967,0.0018866037717089,-9.778459548950195,0,0,29.284740447998047,1,1,760,800,8.360821,0,-0.0002681520709302,-0.0002681520709302,0.0,0,-0.0002681520709302
1778788401.100012,74285274,0,0.0041498974896967,0.0039570815861225,-0.0004370090318843,-0.0014457963407039,-0.0012010320788249,-9.78786277770996,0,0,29.28688621520996,1,1,1000,1000,8.400805,0,-0.0004370090318843,-0.0004370090318843,0.0,0,-0.0004370090318843
1778788401.100012,74285274,1,0.0041585275903344,0.0039505762979388,-0.0002052965428447,-0.0026226290501654,7.601501420140266e-05,-9.786898612976074,0,0,29.286834716796875,1,1,760,800,8.400805,0,-0.0002052965428447,-0.0002052965428447,0.0,0,-0.0002052965428447
1778788401.139996,74325258,0,0.0039289752021431,0.0036394810304045,-0.0005598125280812,-0.0002493052161298,-0.0015681376680731,-9.788753509521484,0,0,29.288982391357425,1,1,1000,1000,8.440789,0,-0.0005598125280812,-0.0005598125280812,0.0,0,-0.0005598125280812
1778788401.139996,74325258,1,0.0037787314504384,0.0036584136541932,-0.0005150150391273,-0.0030437977984547,0.0015068727079778,-9.790197372436523,0,0,29.288928985595703,1,1,760,800,8.440789,0,-0.0005150150391273,-0.0005150150391273,0.0,0,-0.0005150150391273
1778788401.17998,74365242,0,0.0019588891882449,0.0033539338037371,-0.000584699504543,-0.001196956844069,-0.0012051772791892,-9.792118072509766,0,0,29.29107666015625,1,1,1000,1000,8.480773,0,-0.000584699504543,-0.000584699504543,0.0,0,-0.000584699504543
1778788401.17998,74365242,1,0.0019919376354664,0.0031755128875374,-0.0005268369568511,-0.0008348476258106,-0.0039785439148545,-9.79347801208496,0,0,29.29102325439453,1,1,760,800,8.480773,0,-0.0005268369568511,-0.0005268369568511,0.0,0,-0.0005268369568511
1778788401.219964,74405226,0,0.0032303459011018,0.0031222968827933,-0.0004811512189917,-0.0004501612856984,-0.0014441629173234,-9.796398162841797,0,0,29.29311752319336,1,1,1000,1000,8.520757,0,-0.0004811512189917,-0.0004811512189917,0.0,0,-0.0004811512189917
1778788401.219964,74405226,1,0.0032744803465902,0.0031930825207382,-0.0005508388858288,-0.0020748486276715,-0.0013368329964578,-9.795351028442385,0,0,29.29311752319336,1,1,760,800,8.520757,0,-0.0005508388858288,-0.0005508388858288,0.0,0,-0.0005508388858288
1778788401.259948,74445210,0,0.0029861379880458,0.0029244422912597,-0.0003951849939767,-0.001322831143625,-0.0012034605024382,-9.79730987548828,0,0,29.29521369934082,1,1,1000,1000,8.560741,0,-0.0003951849939767,-0.0003951849939767,0.0,0,-0.0003951849939767
1778788401.259948,74445210,1,0.0029833202715963,0.0026882598176598,-0.0003461185260675,-0.0023119172547012,-0.0020133070647716,-9.79757308959961,0,0,29.29521369934082,1,1,760,800,8.560741,0,-0.0003461185260675,-0.0003461185260675,0.0,0,-0.0003461185260675
1778788401.299932,74485194,0,0.0028275609947741,0.0024470663629472,-0.0002557596599217,-0.0012700589140877,-0.0014539253897964,-9.799837112426758,0,0,29.297306060791016,1,1,1000,1000,8.600725,0,-0.0002557596599217,-0.0002557596599217,0.0,0,-0.0002557596599217
1778788401.299932,74485194,1,0.002713503781706,0.002507267287001,-0.0002613903197925,-0.001757567632012,-0.000267861993052,-9.799034118652344,0,0,29.297306060791016,1,1,760,800,8.600725,0,-0.0002613903197925,-0.0002613903197925,0.0,0,-0.0002613903197925
1778788401.339916,74525178,0,0.0026115914806723,0.0020443617831915,-0.0004649931215681,-0.0017875240882858,-0.0013087729457765,-9.80677890777588,0,0,29.299400329589844,1,1,1000,1000,8.640709,0,-0.0004649931215681,-0.0004649931215681,0.0,0,-0.0004649931215681
1778788401.339916,74525178,1,0.0025949059054255,0.0020246733911335,-0.0006937990547157,-0.0018454347737133,-0.0013608513399958,-9.806983947753906,0,0,29.299400329589844,1,1,760,800,8.640709,0,-0.0006937990547157,-0.0006937990547157,0.0,0,-0.0006937990547157
1778788401.3799,74565162,0,0.0023875078186392,0.0023658801801502,-0.00062532100128,-0.001576624577865,-0.0010552105959504,-9.815495491027832,0,0,29.30149269104004,1,1,1000,1000,8.680693,0,-0.00062532100128,-0.00062532100128,0.0,0,-0.00062532100128
1778788401.3799,74565162,1,0.0023901036474853,0.0024060199502855,-0.0004941908409819,-0.0034679560922086,-0.0001929802965605,-9.815073013305664,0,0,29.30149269104004,1,1,760,800,8.680693,0,-0.0004941908409819,-0.0004941908409819,0.0,0,-0.0004941908409819
1778788401.419884,74605146,0,0.0027189082466065,0.0022415651474148,-0.0006194793386384,-0.0012946277856826,-0.0017611139919608,-9.81631565093994,0,0,29.303586959838867,1,1,1000,1000,8.720677,0,-0.0006194793386384,-0.0006194793386384,0.0,0,-0.0006194793386384
1778788401.419884,74605146,1,0.0025361441075801,0.0019834358245134,-0.000717940274626,-0.0029287612996995,-0.0023184549063444,-9.816862106323242,0,0,29.303586959838867,1,1,760,800,8.720677,0,-0.000717940274626,-0.000717940274626,0.0,0,-0.000717940274626
1778788401.459868,74645130,0,0.0032385629601776,0.0017138894181698,-0.0005536251701414,-0.0017090791370719,-0.0012261462397873,-9.817211151123049,0,0,29.305679321289062,1,1,1000,1000,8.760661,0,-0.0005536251701414,-0.0005536251701414,0.0,0,-0.0005536251701414
1778788401.459868,74645130,1,0.003232970368117,0.0018743263790383,-0.0003822308499366,-0.0006021802546456,-0.0006751804612576,-9.816780090332031,0,0,29.305679321289062,1,1,760,800,8.760661,0,-0.0003822308499366,-0.0003822308499366,0.0,0,-0.0003822308499366
1778788401.499852,74685114,0,0.0024461173452436,-0.0001189957256428,-0.0006194408051669,-0.0009493277757428,-0.0009354283101856,-9.820882797241213,0,0,29.30777168273925,1,1,1000,1000,8.800645,0,-0.0006194408051669,-0.0006194408051669,0.0,0,-0.0006194408051669
1778788401.499852,74685114,1,0.0026045315898954,-6.959226448088884e-05,-0.0004344908520579,-0.0001065245523932,-0.0029708014335483,-9.819524765014648,0,0,29.30777168273925,1,1,760,800,8.800645,0,-0.0004344908520579,-0.0004344908520579,0.0,0,-0.0004344908520579
1778788401.539836,74725098,0,0.0013127925340086,0.0010248320177197,-0.0007290213834494,-0.0010439275065436,-0.0010839916067197,-9.82236671447754,0,0,29.309864044189453,1,1,1000,1000,8.840629,0,-0.0007290213834494,-0.0007290213834494,0.0,0,-0.0007290213834494
1778788401.539836,74725098,1,0.0013623434351757,0.0011311087291687,-0.0008558569243177,-1.1635282135102898e-05,-0.0027448181062936,-9.81979751586914,0,0,29.309864044189453,1,1,760,800,8.840629,0,-0.0008558569243177,-0.0008558569243177,0.0,0,-0.0008558569243177
1778788401.57982,74765082,0,0.0006731200264766,0.0010489771375432,-0.0009263044921681,-0.0007991248276084,-0.0019025150686502,-9.823846817016602,0,0,29.31195640563965,1,1,1000,1000,8.880613,0,-0.0009263044921681,-0.0009263044921681,0.0,0,-0.0009263044921681
1778788401.57982,74765082,1,0.0006370240007527,0.0010741660371422,-0.0007755142869427,-0.0025294455699622,-0.0036755367182195,-9.824583053588867,0,0,29.31195640563965,1,1,760,800,8.880613,0,-0.0007755142869427,-0.0007755142869427,0.0,0,-0.0007755142869427
1778788401.619804,74805066,0,-0.0002752944710664,0.0010286619653925,-0.0010418342426419,-0.0006581586203537,-0.0022278728429228,-9.82555103302002,0,0,29.314098358154297,1,1,1000,1000,8.920597,0,-0.0010418342426419,-0.0010418342426419,0.0,0,-0.0010418342426419
1778788401.619804,74805066,1,-0.0001593624911038,0.0011375331087037,-0.0008576379623264,0.0019793407991528,-0.0022049653343856,-9.824350357055664,0,0,29.314098358154297,1,1,760,800,8.920597,0,-0.0008576379623264,-0.0008576379623264,0.0,0,-0.0008576379623264
1778788401.659788,74845050,0,-0.0009583366918377,0.0009866550099104,-0.0010033235885202,-0.0009435343090444,-0.0014994610100984,-9.824199676513672,0,0,29.31619071960449,1,1,1000,1000,8.960581,0,-0.0010033235885202,-0.0010033235885202,0.0,0,-0.0010033235885202
1778788401.659788,74845050,1,-0.0010458865435793,0.0010502899531275,-0.000936179771088,0.0021133315749466,-0.0001099239307222,-9.824295043945312,0,0,29.31619071960449,1,1,760,800,8.960581,0,-0.000936179771088,-0.000936179771088,0.0,0,-0.000936179771088
1778788401.699772,74885034,0,-0.0013342623133212,0.0010657231323421,-0.0011328351683914,-0.0007730417419224,-0.0033381786197423,-9.822866439819336,0,0,29.31828117370605,1,1,1000,1000,9.000565,0,-0.0011328351683914,-0.0011328351683914,0.0,0,-0.0011328351683914
1778788401.699772,74885034,1,-0.0013541327789425,0.0011786459945142,-0.0011133896186947,-0.0010142172686755,-0.0024862189311534,-9.823638916015623,0,0,29.31828117370605,1,1,760,800,9.000565,0,-0.0011133896186947,-0.0011133896186947,0.0,0,-0.0011133896186947
1778788401.739756,74925018,0,-0.0016262766439467,0.0010808029910549,-0.0012254004832357,-0.0008876072242856,-0.0016699759289622,-9.823111534118652,0,0,29.32037353515625,1,1,1000,1000,9.040549,0,-0.0012254004832357,-0.0012254004832357,0.0,0,-0.0012254004832357
1778788401.739756,74925018,1,-0.0017185179749503,0.0008213138207793,-0.0010268493788316,0.0003803206200245,-0.0030740539077669,-9.82148551940918,0,0,29.32037353515625,1,1,760,800,9.040549,0,-0.0010268493788316,-0.0010268493788316,0.0,0,-0.0010268493788316
1778788401.77974,74965002,0,-0.0006759493262507,0.0005374191096052,-0.0013260000851005,-0.0009497918654233,-0.0010472573339939,-9.818639755249023,0,0,29.32246398925781,1,1,1000,1000,9.080533,0,-0.0013260000851005,-0.0013260000851005,0.0,0,-0.0013260000851005
1778788401.77974,74965002,1,-0.0008235377026721,0.0003927494108211,-0.0011781257344409,-0.0028660143725574,-0.002176895039156,-9.820289611816406,0,0,29.32246398925781,1,1,760,800,9.080533,0,-0.0011781257344409,-0.0011781257344409,0.0,0,-0.0011781257344409
1778788401.819724,75004986,0,0.000512140628416,-0.0002711678971536,-0.0009453517268411,-0.0001506898843217,-0.0024493390228599,-9.817937850952148,0,0,29.324501037597656,1,1,1000,1000,9.120517,0,-0.0009453517268411,-0.0009453517268411,0.0,0,-0.0009453517268411
1778788401.819724,75004986,1,0.0004672267241403,-0.0002490617334842,-0.0008589150384068,-0.0010912398574873,-0.0017849906580522,-9.81746768951416,0,0,29.324501037597656,1,1,760,800,9.120517,0,-0.0008589150384068,-0.0008589150384068,0.0,0,-0.0008589150384068
1778788401.859708,75044970,0,-0.0008516698726452,-0.0006638376507908,-0.0005490207113325,-0.0002677616430446,-0.001819800119847,-9.822988510131836,0,0,29.32659149169922,1,1,1000,1000,9.160501,0,-0.0005490207113325,-0.0005490207113325,0.0,0,-0.0005490207113325
1778788401.859708,75044970,1,-0.0010183192789554,-0.0005800416111014,-0.0006752278422936,-0.0010176165960729,-0.0041965446434915,-9.823212623596191,0,0,29.32659149169922,1,1,760,800,9.160501,0,-0.0006752278422936,-0.0006752278422936,0.0,0,-0.0006752278422936
1778788401.899692,75084954,0,-0.0005881279939785,-0.0012164034415036,-0.00027629325632,-0.0008474833448417,-0.0019467065576463,-9.826139450073242,0,0,29.32868003845215,1,1,1000,1000,9.200485,0,-0.00027629325632,-0.00027629325632,0.0,0,-0.00027629325632
1778788401.899692,75084954,1,-0.0005299011245369,-0.0013055803719908,-0.00013918208424,0.0009654128807596,-0.0029678891878575,-9.824111938476562,0,0,29.32868003845215,1,1,760,800,9.200485,0,-0.00013918208424,-0.00013918208424,0.0,0,-0.00013918208424
1778788401.939676,75124938,0,-0.0004226099117659,9.74361682892777e-06,5.22267073392868e-05,3.669942088890821e-05,-0.003300986951217,-9.8280029296875,0,0,29.33076858520508,1,1,1000,1000,9.240469,0,5.22267073392868e-05,5.22267073392868e-05,0.0,0,5.22267073392868e-05
1778788401.939676,75124938,1,-0.000395397451939,9.5879498985596e-05,6.492029206128791e-05,3.4158671041950583e-05,-0.0025852881371974,-9.824211120605469,0,0,29.33076858520508,1,1,760,800,9.240469,0,6.492029206128791e-05,6.492029206128791e-05,0.0,0,6.492029206128791e-05
1778788401.97966,75164922,0,-0.0002662402112036,-0.0004966877168044,0.0001653378567425,0.000410927721532,-0.0030982228927314,-9.82820987701416,0,0,29.33285903930664,1,1,1000,1000,9.280453,0,0.0001653378567425,0.0001653378567425,0.0,0,0.0001653378567425
1778788401.97966,75164922,1,-0.0004300088039599,-0.0006665793480351,0.0001240451383637,-0.0012344529386609,-0.002231205580756,-9.828948974609377,0,0,29.33285903930664,1,1,760,800,9.280453,0,0.0001240451383637,0.0001240451383637,0.0,0,0.0001240451383637
1778788402.019644,75204906,0,-0.0001076041662599,-0.0003178658662363,0.0001883611112134,-0.0002317845064681,-0.0021868061739951,-9.82779312133789,0,0,29.33494758605957,1,1,1000,1000,9.320437,0,0.0001883611112134,0.0001883611112134,0.0,0,0.0001883611112134
1778788402.019644,75204906,1,-1.0034265869762748e-05,-0.0004921562504023,0.0002322477812413,-0.0035039531067013,-0.0015784793067723,-9.825973510742188,0,0,29.33494758605957,1,1,760,800,9.320437,0,0.0002322477812413,0.0002322477812413,0.0,0,0.0002322477812413
1778788402.059628,75244890,0,-6.321483670035377e-05,-0.0001873231958597,0.0002290707780048,-0.0013390133390203,-0.0011392695596441,-9.827043533325195,0,0,29.3370361328125,1,1,1000,1000,9.360421,0,0.0002290707780048,0.0002290707780048,0.0,0,0.0002290707780048
1778788402.059628,75244890,1,6.0394690081011504e-05,-0.000363842525985,0.0002653378469403,0.0008643880719318,-0.0050081517547369,-9.823657035827637,0,0,29.3370361328125,1,1,760,800,9.360421,0,0.0002653378469403,0.0002653378469403,0.0,0,0.0002653378469403
